Longitude,Latitude,Speed,Distance,Time,Acc X,Acc Y,Acc Z,Heading,gyro_x,gyro_y,gyro_z,label
73.82266058586538,18.501627040095627,0.0,0.0,18-45-12,0.046402127,-0.13717842,-0.28293374,352.0,-0.03630576,-0.008226318,-0.0234165,0
73.82266058586538,18.501627040095627,0.0,0.0,18-45-12,-0.045288101500000004,0.11403179000000001,-0.08702245249999999,352.0,-0.00026470849999999865,-0.008837184,-0.006923139,0
73.82266058586538,18.501627040095627,0.0,0.0,18-45-13,-0.04531037866666667,0.04157447666666667,-0.236343235,352.0,-0.0041335213333333325,-0.015149458,-0.003461569333333333,0
73.82266058586538,18.501627040095627,0.0,0.0,18-45-13,0.026539563499999995,0.049371002500000004,-0.26485650125,352.0,-0.007595091,-0.0106697795,-0.0038688125,0
73.82266058586538,18.501627040095627,0.0,0.0,18-45-13,-0.024815071200000004,0.0418497072,-0.310702141,352.0,-0.0038077263999999993,-0.0078597994,-0.0017918711999999996,0
73.82266058586538,18.501627040095627,0.0,0.0,18-45-13,-0.017607862600000006,0.0693149912,-0.25976795779999995,352.0,-0.002219476399999999,-0.0055385116,0.0028506288000000003,0
73.82266058586538,18.501627040095627,0.0,0.0,18-45-13,-0.0014855151999999996,0.018075787200000002,-0.3799264848,352.0,-0.0008755734000000001,-0.0037059016,0.004194532400000001,0
73.82266058586538,18.501627040095627,0.0,0.0,18-45-13,0.045347147399999996,0.027771794199999998,-0.38031742479999997,352.0,0.001567856,0.0025249238,0.0033394184,0
73.82266058586538,18.501627040095627,0.0,0.0,18-45-13,-0.05338201659999999,0.0900167822,-0.21014650479999997,352.0,0.0046221822,0.0020362726,0.0013846493999999997,0
73.82266058586538,18.501627040095627,0.0,0.0,18-45-13,0.008597933399999997,0.160901297,-0.16392951879999998,352.0,-0.0025860282,0.0028914839999999997,0.0005294381999999997,0
73.82266041822731,18.50162720773369,0.0,0.025645396,18-45-13,-0.07840574460000001,0.1777334218,-0.139093998,352.0,0.0037669706,0.0008145422,0.0005294381999999997,0
73.82266041822731,18.50162720773369,0.0,0.025645396,18-45-13,-0.006789086,0.21409950579999998,-0.05692880679999999,352.0,-0.0036855849999999995,-0.0034615283999999994,-0.0006922922000000005,0
73.82266041822731,18.50162720773369,0.0,0.025645396,18-45-14,-0.08439004800000001,0.22886791560000003,-0.046272854799999985,352.0,0.0013235416000000008,-0.00016285599999999942,-0.0035023696000000006,0
73.82266041822731,18.50162720773369,0.0,0.025645396,18-45-14,0.02105761799999999,0.2078475976,-0.1736032348,352.0,0.0005905034000000007,-0.0030950501999999994,-0.0022806394000000002,0
73.82266041822731,18.50162720773369,0.0,0.025645396,18-45-14,-0.05969347400000001,0.15156002159999998,-0.05798913079999997,352.0,0.001323542400000001,-0.0017511467999999988,-0.006923214999999999,0
73.82266041822731,18.50162720773369,0.0,0.025645396,18-45-14,0.043270115999999983,0.1851629268,-0.09693372079999998,352.0,0.0034004842,-0.003950261799999999,-0.0036244670000000006,0
73.82266041822731,18.50162720773369,0.0,0.025645396,18-45-14,0.035302503999999985,0.1411027896,0.02467454800000003,352.0,-0.0019751298000000002,0.002891428800000001,-0.006312274400000001,0
73.82266041822731,18.50162720773369,0.0,0.025645396,18-45-14,0.08280102859999998,0.1429796206,-0.0002620939999999683,352.0,-0.007350743999999999,-0.0050498194,-0.0019140450000000003,0
73.82266041822731,18.50162720773369,0.0,0.025645396,18-45-14,0.02268106259999999,0.10624351459999999,0.04658558200000002,352.0,-0.011748974,0.0013031792000000003,-0.004601851999999999,0
73.82266041822731,18.50162720773369,0.0,0.025645396,18-45-14,0.05407729659999999,0.1048423766,-0.04305085199999999,352.0,-0.0035633798,-0.007493280399999999,0.0030950503999999995,0
73.82266041822731,18.50162720773369,0.0,0.025645396,18-45-14,0.047720468599999996,0.0723787306,-0.025926812999999983,352.0,-0.0123598396,-0.0030950506,0.0006515893999999996,0
73.82266041822731,18.50162720773369,0.0,0.025645396,18-45-14,-0.025694643400000005,0.1409193038,-0.017568041,352.0,-2.0361600000000368e-05,-0.0056606706,0.004927645999999999,0
73.82266041822731,18.50162720773369,0.0,0.025645396,18-45-15,-0.016922735200000007,0.194023132,0.08792881300000002,352.0,-0.0005090538000000003,-0.0007737486,0.0032172235999999993,0
73.82266041822731,18.50162720773369,0.0,0.025645396,18-45-15,-0.03666380520000001,0.15328178399999998,-0.038360416999999966,352.0,0.0031561377999999992,-0.0037059018,0.0049276462,0
73.82266041822731,18.50162720773369,0.0,0.025645396,18-45-15,0.029776944799999993,0.1554969788,-0.12198224099999996,352.0,-0.0024638224,-0.0028506902,0.0011402814,0
73.82266041822731,18.50162720773369,0.0,0.025645396,18-45-15,0.06443579279999999,0.17715511479999999,-0.12977941659999997,352.0,-0.0020973031999999996,-0.0006515752000000003,-0.0025249102,0
73.82266041822731,18.50162720773369,0.0,0.025645396,18-45-15,0.0644953428,0.19623813880000002,-0.10008406859999996,352.0,-0.010649417,-0.0061493764,-0.0026470826000000005,0
73.82266041822731,18.50162720773369,0.0,0.025645396,18-45-15,0.04295352679999999,0.1249744442,-0.15511434859999995,352.0,-0.0165137232,-0.0079819722,-0.0017918714000000001,0
73.82266041822731,18.50162720773369,0.0,0.025645396,18-45-15,0.025865258799999995,0.20859604020000005,0.12084766540000005,352.0,-0.0064955328,-0.009081529599999999,0.0029728777999999995,0
73.82266041822731,18.50162720773369,0.0,0.025645396,18-45-15,0.0520849788,0.27243327940000006,0.30595908740000005,352.0,-0.006984225399999999,-0.0046833,0.0022398397999999994,0
73.82266041822731,18.50162720773369,0.0,0.025645396,18-45-15,-0.023010453200000006,0.31891612739999997,0.44710721800000003,352.0,-0.0017307840000000002,-0.0076154122,0.0021176669999999993,0
73.82266041822731,18.50162720773369,0.0,0.025645396,18-45-15,0.04207717479999999,0.32367343540000004,0.299953013,352.0,-0.0038077258000000004,0.0008145280000000001,-0.0021583904000000006,0
73.82266041822731,18.50162720773369,0.0,0.025645396,18-45-16,0.03236413899999999,0.41832065200000007,0.46800936900000006,352.0,0.0075543678000000005,-0.0011402407999999999,-0.0013031792000000007,0
73.82266041822731,18.50162720773369,0.0,0.025645396,18-45-16,0.010141312999999996,0.35622452400000004,0.22177554900000004,352.0,0.0003461575999999992,-0.006515855199999999,0.00016289759999999973,0
73.82266041822731,18.50162720773369,0.0,0.025645396,18-45-16,0.01823123299999998,0.33002060800000005,0.2780845350000001,352.0,-0.0030746876000000006,-0.007615412599999999,0.00187332,0
73.82266041822731,18.50162720773369,0.0,0.025645396,18-45-16,0.07366663299999998,0.21948346000000005,-0.0006791049999999466,352.0,-0.0007533998000000007,-0.0072489343999999995,0.005782857599999999,0
73.82266041822731,18.50162720773369,0.0,0.025645396,18-45-16,0.06672231099999996,0.093887986,-0.13456595999999993,352.0,-0.0019751306000000005,-0.006271549999999999,0.0012624551999999996,0
73.82266041822731,18.50162720773369,0.0,0.025645396,18-45-16,0.03870576199999997,0.023040856400000004,-0.285972212,352.0,-0.005518149200000001,-0.0013846281999999998,-0.0041131588,0
73.82266041822731,18.50162720773369,0.0,0.025645396,18-45-16,0.09326834919999996,0.011183547600000005,-0.31908735199999994,352.0,-0.008938994600000002,0.0048461974,-0.009000081,0
73.82266041822731,18.50162720773369,0.0,0.025645396,18-45-16,-0.06845395680000002,-0.04891548159999999,-0.467790428,352.0,-0.0031968658000000013,0.0030136016,-0.007045312399999999,0
73.82266041822731,18.50162720773369,0.0,0.025645396,18-45-16,-0.06250112680000001,0.0533874504,-0.26169583999999996,352.0,-0.006495538200000002,-0.003095051,-0.0038688131999999992,0
73.82266041822731,18.50162720773369,0.0,0.025645396,18-45-16,-0.048260206800000024,0.1063884724,-0.03389747999999996,352.0,-0.0063733650000000015,-0.002484185600000001,-0.0031357752000000004,0
73.82266041822731,18.50162720773369,0.0,0.025645396,18-45-17,0.04701428319999998,0.176482008,0.016346154600000044,352.0,-0.0106494218,-0.0059050308,-0.000570141,0
73.82266041822731,18.50162720773369,0.0,0.025645396,18-45-17,0.07498781599999997,0.23910236080000002,0.18543325460000004,352.0,-0.0082060462,-0.0085928378,0.0016289737999999998,0
73.82266041822731,18.50162720773369,0.0,0.025645396,18-45-17,0.11070251399999997,0.27354526199999996,0.16531319460000002,352.0,-0.007717349400000002,-0.0107919526,0.0013846274000000002,0
73.82266041822731,18.50162720773369,0.0,0.025645396,18-45-17,0.054280947999999975,0.18125629199999999,0.021066166600000047,352.0,-0.0038078118000000006,-0.0007737626000000004,-0.006678794,0
73.82266041822731,18.50162720773369,0.0,0.025645396,18-45-17,0.04209213199999997,0.179243086,-0.14632581939999997,352.0,0.0034003983999999986,-0.0072489341999999995,0.0005294159999999996,0
73.82266041822731,18.50162720773369,0.0,0.025645396,18-45-17,0.04835111599999997,0.160060882,-0.06561679199999998,352.0,0.0009569373999999978,-0.0052941654,-0.0005701414000000005,0
73.82266041822731,18.50162720773369,0.0,0.025645396,18-45-17,-0.008021262000000029,0.187185098,-0.03552315199999997,352.0,0.0047443873999999985,-0.0027284634,0.00028506979999999934,0
73.82266041822731,18.50162720773369,0.0,0.025645396,18-45-17,0.029862871999999964,0.144866373,-0.13038239599999996,352.0,-0.0028303418000000017,0.0022806316,-0.0008144876000000004,0
73.82266041822731,18.50162720773369,0.0,0.025645396,18-45-17,0.08756860199999997,0.207867815,0.020687524000000033,352.0,0.017083865799999997,0.010466225999999999,-0.009122254599999999,0
73.82266041822731,18.50162720773369,0.0,0.025645396,18-45-17,0.21879218599999994,0.201213839,0.045257316000000034,352.0,0.012074770599999998,-0.0002850032000000016,-0.007167486000000001,0
73.82266041822731,18.50162720773369,0.0,0.025645396,18-45-18,0.2921350319999999,0.10078067900000001,0.08161621600000003,352.0,0.029912035800000004,-0.008959289800000002,-0.0020362182000000003,0
73.82266041822731,18.50162720773369,0.0,0.025645396,18-45-18,0.37460354599999995,-0.067654609,-0.005513202399999971,352.0,0.0249029406,-0.009203689800000003,-0.0077783512,0
73.82266041822731,18.50162720773369,0.0,0.025645396,18-45-18,0.29596305999999994,-0.071765899,0.17040379560000002,352.0,0.0246585944,0.003257960599999997,-0.017063502400000003,0
73.82266041822731,18.50162720773369,0.0,0.025645396,18-45-18,0.14838429199999995,-0.11784172,0.008529929600000031,352.0,0.005721771400000001,-0.0050498068000000024,-0.0035022946000000015,0
73.82266041822731,18.50162720773369,0.0,0.025645396,18-45-18,-0.035755067200000025,-0.169851114,0.054379359600000024,352.0,-0.0034412068000000003,0.004968384199999999,-0.005334890200000001,0
73.82266041822731,18.50162720773369,0.0,0.025645396,18-45-18,-0.13698697520000006,-0.09093856999999998,0.2249685496,352.0,-0.011382455199999999,-0.0038280754,-0.009977466,0
73.82266041822731,18.50162720773369,0.0,0.025645396,18-45-18,-0.031446381200000026,-0.054630281999999995,0.04217030800000001,352.0,-0.0045407644,-0.0194662404,0.012380202799999998,0
73.82266041822731,18.50162720773369,0.0,0.025645396,18-45-18,0.14428638279999997,-0.077837183,-0.012190811999999987,352.0,0.0159843082,-0.0344935248,0.0195884122,0
73.82266041822731,18.50162720773369,0.0,0.025645396,18-45-18,0.4112462568,0.03061217999999999,0.11842364000000001,352.0,-0.004174244799999999,-0.048299079,0.019466239799999997,0
73.82266041822731,18.50162720773369,0.0,0.025645396,18-45-18,0.41359198599999997,0.18067818,0.11310518920000001,352.0,-0.0029525149999999984,-0.0448782338,0.018733201799999995,0
73.82266041822731,18.50162720773369,0.0,0.025645396,18-45-19,0.398118756,0.24273243400000002,-0.1840734428,352.0,0.0014457150000000015,-0.026307930200000003,0.021298835799999995,0
73.82266041822731,18.50162720773369,0.0,0.025645396,18-45-19,0.28802252399999995,0.396817784,0.06218049320000002,352.0,0.0004683306000000019,-0.006393722599999999,-0.0011810062000000023,0
73.82266041822731,18.50162720773369,0.0,0.025645396,18-45-19,0.19252478999999995,0.5020210300000001,-0.032822784799999984,352.0,-0.0041742453999999984,-0.004072434799999998,0.0010181087999999977,0
73.82266041822731,18.50162720773369,0.0,0.025645396,18-45-19,0.04150876319999998,0.365081982,-0.032029820799999976,352.0,0.0205047106,0.008022696800000001,-0.0014253522000000026,0
73.82266041822731,18.50162720773369,0.0,0.025645396,18-45-19,0.10394268519999997,0.320114708,0.036989008000000025,352.0,0.0222151336,0.008633562000000001,-0.002647082800000003,0
73.82266041822731,18.50162720773369,0.0,0.025645396,18-45-19,0.026580577199999976,0.23958931000000003,0.21947932000000003,352.0,0.017450384800000003,0.0033801208000000015,0.000773762599999997,0
73.82266041822731,18.50162720773369,0.0,0.025645396,18-45-19,-0.00723528900000002,0.21631736800000004,0.25525346400000004,352.0,0.020260365600000003,-0.004194608199999999,0.006027203999999996,0
73.82266041822731,18.50162720773369,0.0,0.025645396,18-45-19,0.059918086999999974,0.1531419764,0.28051392399999997,352.0,0.0146404054,-0.005171992399999999,0.0067602427999999964,0
73.82266041822731,18.50162720773369,0.0,0.025645396,18-45-19,0.11521257179999997,0.2218074804,0.374046314,352.0,0.0009570234000000003,-0.009081529999999999,0.008959357599999997,0
73.82266041822731,18.50162720773369,0.0,0.025645396,18-45-19,0.10751228979999998,0.2180221544,0.32852737039999996,352.0,0.009753483000000002,-0.0134797598,0.011280645599999996,0
73.82266041822731,18.50162720773369,0.0,0.025645396,18-45-20,0.11846532979999998,0.19227561740000002,0.11017161439999998,352.0,0.0019344074000000016,-0.005416338399999999,0.0018733207999999959,0
73.82266041822731,18.50162720773369,0.0,0.025645396,18-45-20,0.31127251599999994,0.12147979540000002,0.1795789024,352.0,-0.018590664599999997,-0.007126761,0.009325877399999996,0
73.82266041822731,18.50162720773369,0.0,0.025645396,18-45-20,0.283159228,0.069844243,0.2444246004,352.0,-0.0437583124,-0.012380202199999999,0.013113242199999996,0
73.82266041822731,18.50162720773369,0.0,0.025645396,18-45-20,0.20655995699999993,0.0303321814,0.08666810039999999,352.0,-0.053776501600000005,-0.017389296999999998,0.015678876399999996,0
73.82266041822731,18.50162720773369,0.0,0.025645396,18-45-20,0.15731998739999997,-0.0392251976,-0.09176013000000001,352.0,-0.0628173076,-0.015312355199999999,0.017144952599999996,0
73.82266041822731,18.50162720773369,0.0,0.025645396,18-45-20,0.11671593139999996,0.0080335614,-0.179509254,352.0,-0.060740365399999996,-0.0177558164,0.019099721199999996,0
73.82266041822731,18.50162720773369,0.0,0.025645396,18-45-20,-0.12449611260000001,0.0839725494,-0.49762407,352.0,-0.0514552142,-0.013724106,0.009570222799999997,0
73.82266041822731,18.50162720773369,0.0,0.025645396,18-45-20,-0.19003701860000002,0.2651725774,-0.34529532000000007,352.0,-0.0331292574,-0.009203702999999999,0.0041946079999999955,0
73.82266041822731,18.50162720773369,0.0,0.025645396,18-45-20,-0.20646823760000005,0.341491127,-0.36769010599999996,352.0,-0.012115493799999998,-0.0026062906,0.0015068005999999956,0
73.82266041822731,18.50162720773369,0.0,0.025645396,18-45-20,-0.23831230200000003,0.3545578,-0.30766602600000004,352.0,-0.004174303799999999,8.151659999999992e-05,-0.007900523800000005,0
73.82266041822731,18.50162720773369,0.0,0.025645396,18-45-21,-0.10023290200000001,0.45323944000000005,-0.1643234884,352.0,0.007554308800000001,-0.0013845598,-0.0028914288000000048,0
73.82266041822731,18.50162720773369,0.0,0.025645396,18-45-21,-0.005228306000000016,0.464720534,0.037160987600000014,352.0,0.0024230403999999997,-0.0007736944,0.00028507039999999505,0
73.82266041822731,18.50162720773369,0.0,0.025645396,18-45-21,0.08445798199999999,0.42034645,-0.09301578899999999,352.0,0.0043778094,0.0019141266000000001,-0.0019140444000000049,0
73.82266041822731,18.50162720773369,0.0,0.025645396,18-45-21,0.040640175999999986,0.36871261599999994,-0.03138017759999999,352.0,0.0041334636,0.0017919265999999999,-0.002402736800000005,0
73.82266041822731,18.50162720773369,0.0,0.025645396,18-45-21,0.07219102739999998,0.42523479399999997,0.22035493440000004,352.0,0.007187848399999999,-0.0030949952,0.0033393965999999956,0
73.82266041822731,18.50162720773369,0.0,0.025645396,18-45-21,0.059589389399999984,0.329540062,0.23601240680000002,352.0,-0.0031968606000000004,-0.0027284760000000005,0.0011402817999999954,0
73.82266041822731,18.50162720773369,0.0,0.025645396,18-45-21,-0.020367712600000015,0.14578189800000002,0.1645637176,352.0,0.0027896188,0.011687943199999998,-0.013031791800000003,0
73.82266041822731,18.50162720773369,0.0,0.025645396,18-45-21,-0.16816347260000003,0.047841644,0.0812526262,352.0,0.004988733800000001,0.015230947599999997,-0.015597425800000004,0
73.82266041822731,18.50162720773369,0.0,0.025645396,18-45-21,-0.07930080260000003,0.027623748000000004,0.049566746800000006,352.0,0.00926479,0.013887002999999998,-0.015353079600000003,0
73.82266041822731,18.50162720773369,0.0,0.025645396,18-45-21,0.0016981359999999833,-0.024575424000000002,-0.010553197199999998,352.0,0.0010791952000000007,0.010954849399999998,-0.012420926800000004,0
73.82266041822731,18.50162720773369,0.0,0.025645396,18-45-22,-0.050305224000000016,-0.033506776,0.0963686128,352.0,0.005110905800000001,0.0028914277999999988,-0.008511389000000005,0
73.82266041822731,18.50162720773369,0.0,0.025645396,18-45-22,-0.03965256280000001,0.005223845999999999,0.030940277999999998,352.0,0.0024230986000000005,-0.010547607,0.0033394937999999966,0
73.82266041822731,18.50162720773369,0.0,0.025645396,18-45-22,0.10625783119999999,0.05164909399999999,0.06462230199999999,352.0,-0.0061290152,-0.0110362992,0.0034616669999999955,0
73.82266041822731,18.50162720773369,0.0,0.025645396,18-45-22,0.6196480652,-0.092504306,0.288098456,352.0,-0.0200567424,0.0044796774,0.03791446419999999,0
73.82266041822731,18.50162720773369,0.0,0.025645396,18-45-22,0.8322528792,-0.298407926,0.370985648,352.0,-0.024210625999999996,0.0071674847999999985,0.030461908599999993,0
73.82266041822731,18.50162720773369,0.0,0.025645396,18-45-22,0.7990700931999999,-0.24364813400000002,0.340208456,352.0,-0.0409483328,0.00044796799999999857,0.04512267459999999,0
73.82266041822731,18.50162720773369,0.0,0.025645396,18-45-22,0.870785824,-0.10947073599999999,0.336062552,352.0,-0.0407039866,-0.0111584716,0.05465207459999999,0
73.82266041822731,18.50162720773369,0.0,0.025645396,18-45-22,0.742543314,-0.062337292,0.16632616799999997,352.0,-0.032151872799999995,-0.010181087200000003,0.05721770839999999,0
73.82266041822731,18.50162720773369,0.0,0.025645396,18-45-22,0.175870404,0.18351631799999998,-0.25987399200000005,352.0,-0.031052315399999995,-0.029484428200000003,0.022153970399999993,0
73.82266041822731,18.50162720773369,0.0,0.025645396,18-45-22,-0.073466256,0.465382768,-0.490702278,352.0,-0.018835010200000002,-0.019710583800000004,0.017755740599999993,0
73.82266041822731,18.50162720773369,0.0,0.025645396,18-45-23,-0.08360063599999999,0.420391272,-0.757507646,352.0,-0.0027081685999999997,-0.010547605800000002,0.0008958599999999951,0
73.82266041822731,18.50162720773369,0.0,0.025645396,18-45-23,-0.1392839036,0.33068675899999994,-0.849463946,352.0,0.0095091362,0.005090544599999998,-0.010954925200000003,0
73.82266041822731,18.50162720773369,0.0,0.025645396,18-45-23,-0.03420756639999999,0.319218063,-0.426784486,352.0,0.0272242294,0.0027692565999999984,-0.009488924200000005,0
73.82266041822731,18.50162720773369,0.0,0.025645396,18-45-23,0.0977077636,0.261373713,-0.17024530000000007,352.0,0.0368759008,0.010954850799999997,-0.011199271400000006,0
73.82266041822731,18.50162720773369,0.0,0.025645396,18-45-23,0.052698748,0.21117267699999998,0.02449061999999993,352.0,0.0413963032,0.0063122744,-0.004846273000000005,0
73.82266041822731,18.50162720773369,0.0,0.025645396,18-45-23,0.152736844,0.216804313,0.21222676999999993,352.0,0.0358985158,0.005823582199999998,-0.005823706400000005,0
73.82266041822731,18.50162720773369,0.0,0.025645396,18-45-23,0.20390333759999998,0.26006832199999996,0.38071967399999995,352.0,0.0380976308,-0.0013846278000000007,0.00028494559999999515,0
73.82265312597156,18.50162699818611,0.112,0.78778964,18-45-23,0.2199842544,0.20493183199999998,0.22113795399999994,352.0,0.0192829802,-0.0013846278000000007,-8.14980000000048e-05,0
73.82265312597156,18.50162699818611,0.112,0.78778964,18-45-23,0.07567757239999999,0.131228827,0.14025789599999997,352.0,0.0108530396,-0.0059050306000000006,-0.0005701902000000047,0
73.82265312597156,18.50162699818611,0.112,0.78778964,18-45-23,0.110349064,0.09588355899999998,-0.08114613200000005,352.0,-0.002219476399999999,-0.0131132404,0.0012624051999999954,0
73.82265312597156,18.50162699818611,0.112,0.78778964,18-45-24,0.107641344,0.10001735899999997,-0.015613742000000052,352.0,-0.004785110799999999,-0.003461569400000001,-0.0032579490000000043,0
73.82265312597156,18.50162699818611,0.112,0.78778964,18-45-24,0.005759701999999989,0.133301927,-0.016985853000000047,352.0,-0.013703801800000002,-0.0077376264,-0.0035022946000000054,0
73.82265312597156,18.50162699818611,0.112,0.78778964,18-45-24,0.03160329799999999,0.16467819299999997,0.07380010699999995,351.0,-0.010893821799999998,-0.0057828574,-0.006434447800000005,0
73.82265312597156,18.50162699818611,0.112,0.78778964,18-45-24,0.07378728439999999,0.27688884799999997,0.18066859499999993,350.0,-0.0003869395999999997,-0.0038280885999999992,-0.001669699000000005,0
73.82265312597156,18.50162699818611,0.112,0.78778964,18-45-24,0.08019309639999998,0.253463174,0.13776620899999995,350.0,0.004011290399999999,0.005334890200000001,-0.007656178000000005,0
73.82265312597156,18.50162699818611,0.112,0.78778964,18-45-24,0.0006281803999999835,0.15433673799999997,-0.05232803100000005,350.0,0.014640345999999999,0.003624467400000002,-0.003624467400000006,0
73.82265312597156,18.50162699818611,0.112,0.78778964,18-45-24,0.06752624639999999,0.15524081999999997,-0.05486099600000005,350.0,0.011097386,0.012665273200000002,-0.0069231886000000065,0
73.82263912819326,18.50162439979613,0.356,2.2847304,18-45-24,-0.06781355160000001,0.08754653799999997,-0.25358628600000005,350.0,0.006210464199999999,0.007411832,-0.003991035400000005,0
73.82263912819326,18.50162439979613,0.356,2.2847304,18-45-24,-0.023116786000000007,-0.04442329600000003,-0.493562122,350.0,0.0016900614000000009,0.0082670434,-0.0057014578000000055,0
73.82263912819326,18.50162439979613,0.356,2.2847304,18-45-24,0.004206399999999999,0.011360737999999971,-0.25506175400000003,351.0,0.004500041600000001,0.007778351,-0.004479727600000006,0
73.82263912819326,18.50162439979613,0.356,2.2847304,18-45-25,0.031406854,0.09233398199999998,-0.22479474200000005,351.0,-0.0023416489999999995,0.002280564,-0.0022806126000000054,0
73.82263912819326,18.50162439979613,0.356,2.2847304,18-45-25,0.07735868,0.021692655599999965,-0.28102435000000003,351.0,0.0003461580000000006,0.0008144873999999999,-0.005579236200000006,0
73.82263912819326,18.50162439979613,0.356,2.2847304,18-45-25,0.10409961400000001,0.08032531559999996,-0.148990554,350.0,0.0015678882000000004,0.0032579482,-0.0019140446000000054,0
73.82263912819326,18.50162439979613,0.356,2.2847304,18-45-25,0.09677861400000001,0.16397323559999996,0.10738100599999996,350.0,-0.004296418599999999,0.0042353324,-0.0038688132000000057,0
73.82263912819326,18.50162439979613,0.356,2.2847304,18-45-25,0.0008727559999999912,0.18035011359999997,0.02467068919999996,351.0,0.0030339642000000015,-0.0004072435999999997,0.0035837429999999947,0
73.82263912819326,18.50162439979613,0.356,2.2847304,18-45-25,0.053501659999999986,0.24858608559999995,0.17580198119999996,351.0,0.016595172600000003,0.0075340046,-0.001669698400000005,0
73.82263912819326,18.50162439979613,0.356,2.2847304,18-45-25,-0.06964885000000001,0.30288544199999995,0.36454235319999995,352.0,0.024780767600000003,0.0043575052,0.0066380687999999955,0
73.8226164970547,18.5016232682392,0.51,4.6745257,18-45-25,-0.10461982,0.41293755,0.06307986719999996,353.0,0.0471384368,0.010221812,-0.006678793200000005,0
73.8226164970547,18.5016232682392,0.51,4.6745257,18-45-25,0.08853138999999999,0.11719075399999994,-0.16533692280000004,353.0,0.037608938800000005,-0.006271548800000001,0.008348491399999994,0
73.8226164970547,18.5016232682392,0.51,4.6745257,18-45-25,0.1300371564,0.10337563599999995,-0.22887643600000004,354.0,0.017328212600000004,0.019995656,-0.019751309400000007,0
73.8226164970547,18.5016232682392,0.51,4.6745257,18-45-26,0.4483154583999999,-0.23628864400000005,-0.4810603400000001,355.0,0.0104865218,0.0100996388,-0.017063502400000007,0
73.8226164970547,18.5016232682392,0.51,4.6745257,18-45-26,0.13449014239999996,-0.10571976400000005,-0.7226695440000002,356.0,0.0093869642,0.0036244674000000033,-0.019995655200000007,0
73.8226164970547,18.5016232682392,0.51,4.6745257,18-45-26,0.3905308624,-0.4637500740000001,-0.9215275440000001,357.0,0.0081652332,0.009610947400000002,-0.026348653200000006,0
73.8226164970547,18.5016232682392,0.51,4.6745257,18-45-26,0.18514003040000002,-0.2399370240000001,-1.175409594,357.0,0.016839520200000003,0.0094887734,-0.023905192200000005,0
73.8226164970547,18.5016232682392,0.51,4.6745257,18-45-26,0.1799027192,-0.15466042000000008,-1.068013642,357.0,0.0368759002,-0.016900604199999995,-0.0010588324000000045,0
73.8226164970547,18.5016232682392,0.51,4.6745257,18-45-26,0.01617438520000003,0.10767727399999993,-0.8767534100000001,357.0,0.028812478999999995,-0.023742294199999996,0.007493281599999996,0
73.8226164970547,18.5016232682392,0.51,4.6745257,18-45-26,0.25374164520000003,-0.02141856200000005,-0.6592254540000001,357.0,0.0316224586,-0.0109141242,-0.004968369600000004,0
73.82258640602231,18.501623435877264,0.746,7.8436546,18-45-26,0.11609067520000002,0.188011518,-0.31304503400000006,357.0,0.0218486138,-0.0321722354,0.010181087799999997,0
73.82258640602231,18.501623435877264,0.746,7.8436546,18-45-26,0.09094460740000002,0.22587467639999997,0.06561467999999993,357.0,0.036265033599999996,-0.023009256399999997,-0.009977465200000004,0
73.82258640602231,18.501623435877264,0.746,7.8436546,18-45-26,0.1278339282,0.08594585919999996,-0.06631531000000009,357.0,0.03211115,-0.0289957358,-0.009366600200000002,0
73.82258640602231,18.501623435877264,0.746,7.8436546,18-45-27,-0.08419081379999999,0.05169426419999997,0.02338565799999992,357.0,0.026735535600000006,-0.0249640258,-0.014497868600000002,0
73.82258640602231,18.501623435877264,0.746,7.8436546,18-45-27,-0.01943108379999999,0.029946484199999967,-0.3100437260000001,357.0,0.030767246800000002,-0.0355930812,-0.008144870200000003,0
73.82258640602231,18.501623435877264,0.746,7.8436546,18-45-27,0.030650462200000006,-0.03803691580000003,-0.28141384000000014,356.0,0.012319116799999998,-0.03632612,-0.0014253526000000023,0
73.82258640602231,18.501623435877264,0.746,7.8436546,18-45-27,0.132901722,0.01916904779999997,-0.3254974240000001,356.0,-0.014436780399999998,-0.041946081,-0.0008144872000000025,0
73.82258640602231,18.501623435877264,0.746,7.8436546,18-45-27,0.242961764,0.11522102699999996,-0.2470423072000001,356.0,-0.0327627376,-0.053063828,0.011158471999999997,0
73.82258640602231,18.501623435877264,0.746,7.8436546,18-45-27,0.313957202,0.225666808,-0.5761146872000001,356.0,-0.0018529548000000007,-0.058928135199999995,0.005294165799999997,0
73.82258640602231,18.501623435877264,0.746,7.8436546,18-45-27,0.40425863800000006,0.25235557399999997,-0.23196481920000012,356.0,-0.008938992000000002,-0.067602422,0.009814568599999997,0
73.82255304604769,18.501623896881934,0.718,11.361694,18-45-27,0.3303699,0.505911054,-0.46093128520000004,356.0,-0.0039298972,-0.07346672800000001,0.007248934399999997,0
73.82255304604769,18.501623896881934,0.718,11.361694,18-45-27,0.34788574,0.57110957,-0.5663403352000002,355.0,0.0380976308,-0.078842341,0.012746721799999996,0
73.82255304604769,18.501623896881934,0.718,11.361694,18-45-27,0.201260269,0.62147559,-0.598181912,355.0,0.0686408928,-0.070168055,-0.0053348894000000025,0
73.82255304604769,18.501623896881934,0.718,11.361694,18-45-28,0.184809935,0.5848770099999999,-0.4983917640000001,354.0,0.049581896,-0.0682132858,-0.0090000808,0
73.82255304604769,18.501623896881934,0.718,11.361694,18-45-28,0.20097321900000004,0.6375326119999999,-0.5222350040000001,356.0,0.067907854,-0.072978033,-0.011443542000000003,0
73.82255304604769,18.501623896881934,0.718,11.361694,18-45-28,0.004859480999999999,0.510229492,-0.29708031600000007,355.0,0.09893980799999999,-0.06576982299999999,-0.035267286800000006,0
73.82255304604769,18.501623896881934,0.718,11.361694,18-45-28,-0.08143431100000001,0.35256519399999997,-0.1104210992000001,356.0,0.0836681772,-0.0610050746,-0.03734422920000001,0
73.82255304604769,18.501623896881934,0.718,11.361694,18-45-28,-0.057242872000000014,0.16326866199999998,-0.06429566320000009,356.0,0.0668082112,-0.059905517199999994,-0.036244672000000006,0
73.82255304604769,18.501623896881934,0.718,11.361694,18-45-28,-0.118891032,0.08164634499999998,0.1851313087999999,355.0,0.066075173,-0.0612494212,-0.026715174400000003,0
73.82255304604769,18.501623896881934,0.718,11.361694,18-45-28,-0.203655788,-0.09278049700000003,-0.1403309592000001,351.0,0.04457271559999999,-0.0500095018,-0.022072598400000004,0
73.82251993753016,18.50161564070732,0.73199996,14.906174,18-45-28,0.30184231200000006,-0.15853805500000004,0.3615693727999999,352.0,-0.028364594400000005,-0.06173811579999999,0.014945835599999995,0
73.82251993753016,18.50161564070732,0.73199996,14.906174,18-45-28,-0.14212449599999993,-0.24593944500000003,-0.027435784000000085,352.0,-0.09226109560000001,-0.0798197272,0.039013927399999995,1
73.82251993753016,18.50161564070732,0.73199996,14.906174,18-45-28,-0.2072458239999999,-0.06242103500000003,-0.41513632000000006,353.0,-0.0711250716,-0.0572177138,0.012746723399999998,1
73.82251993753016,18.50161564070732,0.73199996,14.906174,18-45-29,-0.10386663199999993,0.27217770199999997,-1.04094902,354.0,-0.11510736940000002,-0.08849401179999998,0.0542855608,1
73.82251993753016,18.50161564070732,0.73199996,14.906174,18-45-29,-0.47709962599999994,0.296065718,-2.01619786,354.0,-0.21137973200000001,-0.08507316639999998,0.0412130448,1
73.82251993753016,18.50161564070732,0.73199996,14.906174,18-45-29,-1.082216286,1.019267276,-3.4913836000000003,352.0,-0.270755836,-0.0651588904,0.04255694759999999,1
73.82251993753016,18.50161564070732,0.73199996,14.906174,18-45-29,-1.1305054860000001,1.642241496,-3.78391302,353.0,-0.08725192,-0.011769267399999991,-0.0005701395999999998,1
73.82251993753016,18.50161564070732,0.73199996,14.906174,18-45-29,-1.080891892,1.9106580859999998,-3.4527308480000003,353.0,0.0019343960000000049,-0.012013614199999995,0.004194606399999995,1
73.82251993753016,18.50161564070732,0.73199996,14.906174,18-45-29,-1.555064352,1.7528593140000002,-4.026543428,353.0,0.119587046,0.020117896200000002,-0.0812043556,1
73.82251993753016,18.50161564070732,0.73199996,14.906174,18-45-29,-1.10715504,1.4882797279999997,-1.1247221680000004,355.0,0.40400590200000003,0.0360003928,-0.10087421519999999,1
73.82248188368976,18.501607133075595,0.82,18.999422,18-45-29,-0.7200209,-0.18592903200000005,1.2697332719999994,355.0,0.578713362,0.0560367048,-0.162449432,1
73.82248188368976,18.501607133075595,0.82,18.999422,18-45-29,-0.43587793999999996,-1.602762432,3.561620472,354.0,0.382381274,0.0462628598,-0.136548746,1
73.82248188368976,18.501607133075595,0.82,18.999422,18-45-29,-0.8030114879999999,-2.4593401120000005,4.80166104,354.0,0.14585425400000002,0.0391768248,-0.095132082,1
73.82248188368976,18.501607133075595,0.82,18.999422,18-45-30,-0.8134233679999999,-2.638281266,6.30478898,355.0,-0.022255867999999967,0.0417424584,-0.020362173999999993,1
73.82248188368976,18.501607133075595,0.82,18.999422,18-45-30,-1.0788879999999998,-2.3263357287999997,4.91360834,355.0,-0.29323569,0.0327016524,0.0269187952,1
73.82248188368976,18.501607133075595,0.82,18.999422,18-45-30,-1.45132354,-1.0861164888000001,3.364770659999999,355.0,-0.40306926,0.0253712684,0.06234898,1
73.82248188368976,18.501607133075595,0.82,18.999422,18-45-30,-1.5465584399999999,0.16624775119999996,1.4764808199999995,354.0,-0.343570987,0.029769498400000004,0.030828333999999995,1
73.82248188368976,18.501607133075595,0.82,18.999422,18-45-30,-1.32619618,0.9280082712000001,0.07805619999999962,353.0,-0.2150449336,0.03673336240000001,-0.0010588299999999995,1
73.82248188368976,18.501607133075595,0.82,18.999422,18-45-30,-1.04929062,1.1910108571999998,-0.5448368400000003,354.0,-0.1006909556,0.05945754840000002,-0.05066109,1
73.82248188368976,18.501607133075595,0.82,18.999422,18-45-30,-0.7293436659999999,1.30570336,-0.7872208720000005,354.0,0.0076765424000000025,0.06556620100000002,-0.08047131440000001,1
73.82243083789945,18.50160373840481,1.146,24.398438,18-45-30,-0.30154616599999995,0.93148842,-0.5115058780000004,354.0,0.058378358799999995,0.055548012,-0.07790568020000001,1
73.82243083789945,18.50160373840481,1.146,24.398438,18-45-30,0.15369591400000002,0.540440558,0.013528861999999631,353.0,0.0738943358,0.03844378560000001,-0.0586023388,1
73.82243083789945,18.50160373840481,1.146,24.398438,18-45-30,0.34633168200000003,0.175782398,0.2962826899999996,351.0,0.0742608548,0.025371336600000006,-0.0400319388,1
73.82243083789945,18.50160373840481,1.146,24.398438,18-45-31,0.536081862,-0.13506164199999998,0.7156163899999995,352.0,0.043473245199999996,0.009977533800000004,-0.0232942308,1
73.82243083789945,18.50160373840481,1.146,24.398438,18-45-31,0.550109332,-0.497999582,1.0542475819999997,352.0,-0.017368934800000003,-0.000651521399999995,-0.0069230426,1
73.82243083789945,18.50160373840481,1.146,24.398438,18-45-31,0.4276355580000001,-0.37498036200000007,0.5468580279999996,353.0,-0.0955596812,-0.007981904199999995,0.0132355104,1
73.82243083789945,18.50160373840481,1.146,24.398438,18-45-31,0.23818043760000002,0.038019939999999953,-0.7281068720000003,352.0,-0.2228640032,-0.014823594799999996,0.035348831000000004,1
73.82243083789945,18.50160373840481,1.146,24.398438,18-45-31,0.24906682960000004,-0.08901176800000006,-0.6642344200000003,351.0,-0.29738956159999996,-0.029973120799999996,0.050009499,1
73.82243083789945,18.50160373840481,1.146,24.398438,18-45-31,0.13375733360000003,0.5365426919999999,-2.1763980200000006,352.0,-0.307041232,-0.01971058439999999,0.042068251,1
73.82243083789945,18.50160373840481,1.146,24.398438,18-45-31,-0.12431051839999999,1.3839519519999999,-3.5338756400000007,353.0,-0.26660195340000004,-0.004805473199999995,0.028873562,1
73.82238079793751,18.501593973487616,0.97199994,29.771858,18-45-31,-0.2523919844,1.764688692,-3.4608029200000003,354.0,-0.1345328934,0.016696983600000003,-0.0027692580000000023,1
73.82238079793751,18.501593973487616,0.97199994,29.771858,18-45-31,-0.371516678,1.8338943520000002,-3.09234308,353.0,0.0472606066,0.03147992200000001,-0.038688132,1
73.82238079793751,18.501593973487616,0.97199994,29.771858,18-45-31,-0.282524658,2.199222186,-3.4175412400000007,353.0,0.16503542459999998,0.063489261,-0.076195257,1
73.82238079793751,18.501593973487616,0.97199994,29.771858,18-45-32,-0.03435682799999995,1.494846546,-2.0726709800000003,353.0,0.2197689526,0.054081935800000015,-0.080471314,1
73.82238079793751,18.501593973487616,0.97199994,29.771858,18-45-32,0.2909402,0.709049046,-0.9417505520000002,354.0,0.21256074279999998,0.034534248600000005,-0.0700866046,1
73.82238079793751,18.501593973487616,0.97199994,29.771858,18-45-32,0.520536592,0.08727912599999996,-0.3144007520000004,354.0,0.1429221058,0.004235331600000003,-0.051394127199999994,1
73.82238079793751,18.501593973487616,0.97199994,29.771858,18-45-32,0.580078906,-0.29471264,0.21686030799999964,354.0,0.0448171498,-0.009936741799999996,-0.018040885200000002,1
73.82238079793751,18.501593973487616,0.97199994,29.771858,18-45-32,0.450582586,-0.5495374660000001,0.6335734479999996,354.0,-0.0336179462,-0.0377921968,0.011647164599999999,1
73.82238079793751,18.501593973487616,0.97199994,29.771858,18-45-32,0.14246268000000004,-0.200809866,0.2930411479999996,355.0,-0.0978809722,-0.0425569458,0.0260635844,1
73.82238079793751,18.501593973487616,0.97199994,29.771858,18-45-32,-0.10335512999999996,-0.009776889199999972,0.07271649399999966,356.0,-0.11339694819999999,-0.037670023999999996,0.022398392599999997,1
73.82233042269945,18.501592255197465,1.154,35.077675,18-45-32,-0.19447864999999992,0.5853462108,-0.7217463660000003,356.0,-0.08089891719999999,-0.029117909999999997,0.017511470199999997,1
73.82233042269945,18.501592255197465,1.154,35.077675,18-45-32,-0.33949726999999996,0.5930755508000001,-0.7440419180000004,357.0,-0.02347758419999999,-0.014212797999999995,-0.0087557354,1
73.82233042269945,18.501592255197465,1.154,35.077675,18-45-32,-0.18373670999999997,0.7766761648,-1.2333247380000003,358.0,0.02807944080000001,-0.015923221199999997,-0.0129096188,1
73.82233042269945,18.501592255197465,1.154,35.077675,18-45-33,0.012898794000000014,0.5231687467999999,-1.2412376580000004,357.0,0.049093204800000005,-0.0140906254,-0.019995655600000002,1
73.82233042269945,18.501592255197465,1.154,35.077675,18-45-33,0.20162176399999998,0.48736018400000003,-1.2114681720000005,357.0,0.037486764,-0.012502375599999999,-0.0129096192,1
73.82233042269945,18.501592255197465,1.154,35.077675,18-45-33,0.15263517359999998,0.010479927999999972,-0.5393845120000004,357.0,-0.008328127999999995,-0.0035837429999999977,-0.013153965,1
73.82233042269945,18.501592255197465,1.154,35.077675,18-45-33,0.1661636196,-0.06293869000000003,-0.41388318800000035,357.0,-0.050355657,-0.010669779799999998,-0.0047240254,1
73.82233042269945,18.501592255197465,1.154,35.077675,18-45-33,-0.06979597640000004,0.10914745599999998,-0.12788450600000037,357.0,-0.06733771079999999,0.009122254000000003,-0.0114435428,1
73.82233042269945,18.501592255197465,1.154,35.077675,18-45-33,-0.30334805640000007,0.07028713399999999,0.20820159799999965,357.0,-0.062817308,0.009977465600000002,-0.000692314799999999,1
73.82233042269945,18.501592255197465,1.154,35.077675,18-45-33,-0.49070496440000005,0.30207768,-0.09355250200000036,357.0,-0.024699317199999994,0.015841772000000004,-0.014986560799999998,1
73.82227853871882,18.50158349610865,1.146,40.631626,18-45-33,-0.48986006300000007,0.617963216,-0.6740468020000003,358.0,-0.0017307847999999937,0.0021583902000000014,-0.0083892166,1
73.82227853871882,18.50158349610865,1.146,40.631626,18-45-33,-0.101511961,0.8864378,-0.9908285540000001,358.0,0.038708495200000005,0.0033801206000000014,-0.0283034226,1
73.82227853871882,18.50158349610865,1.146,40.631626,18-45-34,-0.17850848500000002,0.4119270320000001,-1.1477532360000002,358.0,0.03931936040000001,0.023294325999999997,-0.0432085346,1
73.82227853871882,18.50158349610865,1.146,40.631626,18-45-34,0.057406918999999966,0.7151433920000001,-0.7500538800000003,358.0,0.051047973600000005,0.0561588752,-0.07424048860000002,1
73.82227853871882,18.50158349610865,1.146,40.631626,18-45-34,0.055072936999999975,0.607765572,-0.4017753980000003,358.0,0.0530027436,0.0950099064,-0.0816930446,1
73.82227853871882,18.50158349610865,1.146,40.631626,18-45-34,0.07350997199999997,0.335626794,0.13786745399999972,357.0,0.040541092400000006,0.1235984004,-0.094887734,1
73.82227853871882,18.50158349610865,1.146,40.631626,18-45-34,-0.245362086,0.207530594,0.28489651399999966,356.0,0.0001018124000000037,0.1424130498,-0.066054895,1
73.82227853871882,18.50158349610865,1.146,40.631626,18-45-34,-0.18219976600000004,0.5208374020000001,0.3688083659999998,355.0,-0.011015934799999997,0.1339831118,-0.025004749799999997,1
73.82227853871882,18.50158349610865,1.146,40.631626,18-45-34,-0.31516084200000005,0.36669559800000007,-0.007440184000000294,356.0,-0.06245078879999999,0.13044009380000002,-0.0032579474,1
73.82227853871882,18.50158349610865,1.146,40.631626,18-45-34,-0.39863198400000005,0.6308689180000001,-0.5177877260000003,357.0,-0.046934811599999994,0.10087421379999999,0.013113240600000001,1
73.8222245592624,18.50157473701984,1.158,46.407585,18-45-34,-0.47339636800000007,0.918834696,-0.4439256580000004,356.0,-0.04974479119999999,0.10185159700000002,0.0169006056,1
73.8222245592624,18.50157473701984,1.158,46.407585,18-45-34,-0.18434154400000002,0.7469181120000001,-0.13910189200000028,356.0,-0.01822414399999999,0.11504628600000003,-0.0033801206,1
73.8222245592624,18.50157473701984,1.158,46.407585,18-45-35,-0.15672662000000004,0.6812200620000001,0.02994863599999966,356.0,-0.010038549799999992,0.132150512,-0.029402980600000007,1
73.8222245592624,18.50157473701984,1.158,46.407585,18-45-35,-0.13982445400000001,0.597528464,-0.22761781400000033,355.0,0.030889336200000013,0.13935872200000002,-0.0355116326,1
73.8222245592624,18.50157473701984,1.158,46.407585,18-45-35,0.18729307799999997,0.13590927600000002,0.2357430879999997,355.0,0.0005904194000000077,0.144367818,-0.0394211698,1
73.8222245592624,18.50157473701984,1.158,46.407585,18-45-35,0.176381744,-0.15512752400000002,-0.07389337800000029,355.0,0.023558952200000007,0.127019246,-0.028914288000000003,1
73.8222245592624,18.50157473701984,1.158,46.407585,18-45-35,-0.08068577600000001,0.038103867999999985,0.005026875999999713,355.0,-0.002341732999999993,0.10588331,-0.016208291,1
73.8222245592624,18.50157473701984,1.158,46.407585,18-45-35,-0.11303677000000001,0.13697395799999995,-0.2651377440000003,354.0,-0.003319117599999993,0.079982624,-0.0206065212,1
73.8222245592624,18.50157473701984,1.158,46.407585,18-45-35,-0.23260723600000005,0.16443825279999996,-0.019809468000000264,352.0,0.011341733600000006,0.0473624202,0.005538511600000001,1
73.8222245592624,18.50157473701984,1.158,46.407585,18-45-35,-0.41858589,0.033796320799999925,0.25018736999999974,356.0,0.028690307400000004,0.035267288200000003,0.014457144200000003,1
73.82217468693852,18.501564594917,0.95599994,51.775093,18-45-35,-0.03888527000000001,0.005700500799999952,0.4042283079999997,0.0,0.0234368666,0.0291586358,0.021543182,1
73.82217468693852,18.501564594917,0.95599994,51.775093,18-45-35,0.616705216,-0.44310320720000007,-0.04050481200000022,359.0,-0.007106397399999997,-0.016167570200000002,0.0639372322,1
73.82217468693852,18.501564594917,0.95599994,51.775093,18-45-36,1.027731566,-0.6642820272000001,0.05893381799999975,358.0,-0.06306165219999998,-0.04170173819999999,0.1020552232,1
73.82217468693852,18.501564594917,0.95599994,51.775093,18-45-36,1.104380196,-0.527280226,0.13670282199999972,357.0,-0.12744684539999998,-0.0493986404,0.101322184,1
73.82217468693852,18.501564594917,0.95599994,51.775093,18-45-36,1.4019657300000001,-0.25531310599999996,0.09065852199999976,357.0,-0.15640185839999998,-0.055873744399999994,0.09118182080000001,1
73.82217468693852,18.501564594917,0.95599994,51.775093,18-45-36,1.41026703,-0.17494983019999993,-0.12546961800000025,357.0,-0.19061031199999998,-0.07236710599999999,0.09802351220000001,1
73.82217468693852,18.501564594917,0.95599994,51.775093,18-45-36,1.4293069299999999,0.3451297898000001,0.7204089419999997,358.0,-0.15065972499999997,-0.058439374,0.08067493820000002,1
73.82217468693852,18.501564594917,0.95599994,51.775093,18-45-36,1.14672219,0.4972757458,0.39974267199999974,358.0,-0.08529714499999999,-0.056118086,0.0790866902,1
73.82217468693852,18.501564594917,0.95599994,51.775093,18-45-36,1.09167326,0.3710483658,0.0401341919999997,357.0,-0.018346316999999987,-0.046588588,0.0735889028,1
73.82217468693852,18.501564594917,0.95599994,51.775093,18-45-36,0.70834482,0.34991265380000003,-0.5324786480000003,357.0,0.01610648300000001,-0.022031874,0.05013168059999999,1
73.82213252596557,18.50156103260815,0.87,56.240513,18-45-36,0.428216794,0.428334818,-0.26401008000000026,357.0,0.07755952700000002,0.002158389600000001,0.0016289805999999962,1
73.82213252596557,18.50156103260815,0.87,56.240513,18-45-36,-0.1569151438,0.273760414,-0.28269090000000024,355.0,0.08146906480000002,0.0212173846,-0.031357743400000006,1
73.82213252596557,18.50156103260815,0.87,56.240513,18-45-37,-0.04518798379999998,0.08481502599999999,0.3908073999999998,356.0,0.06570874120000002,0.0336790362,-0.0560367002,1
73.82213252596557,18.50156103260815,0.87,56.240513,18-45-37,0.5238515562000001,-0.33933544800000004,1.1553499399999998,357.0,0.00584394920000002,0.015475251200000003,-0.047728931800000006,1
73.82213252596557,18.50156103260815,0.87,56.240513,18-45-37,0.9588219362,-0.521023184,1.9752885,359.0,-0.02567669819999998,-0.0280183528,-0.007289656399999997,1
73.82213252596557,18.50156103260815,0.87,56.240513,18-45-37,0.8495800742,-0.6091625264,1.8365511799999996,358.0,-0.06513859419999998,-0.036326119999999996,0.0310726792,1
73.82213252596557,18.50156103260815,0.87,56.240513,18-45-37,0.747594602,-0.5419836104,1.2903752059999998,358.0,-0.07332418859999998,-0.0343713512,0.043289984000000004,1
73.82213252596557,18.50156103260815,0.87,56.240513,18-45-37,0.5157982340000001,-0.3298990324,0.8948100799999998,357.0,-0.05121086699999999,-0.0243531608,0.0325387554,1
73.82213252596557,18.50156103260815,0.87,56.240513,18-45-37,0.11536863199999998,0.1378459936,0.10084479999999982,356.0,0.026491189000000016,-0.010058913399999998,0.011158471200000002,1
73.82213252596557,18.50156103260815,0.87,56.240513,18-45-37,-0.6072206080000001,0.5136692016,-0.23507374000000017,357.0,0.054224472400000015,0.003746640600000001,0.0033393968000000026,1
73.8220929633826,18.50156262516976,0.658,60.36434,18-45-37,-0.589111756,0.640205952,-0.2394357980000002,356.0,0.08183558240000002,0.013520484199999998,0.007981972800000002,1
73.8220929633826,18.50156262516976,0.658,60.36434,18-45-37,-0.46380782800000003,0.5194869960000001,-0.35947449800000014,356.0,0.11079059500000002,0.0124209268,0.0129910674,1
73.8220929633826,18.50156262516976,0.658,60.36434,18-45-38,0.013551520000000039,0.29351845,-0.08083037200000018,355.0,0.11714359500000002,0.009488773800000001,0.016900604800000003,1
73.8220929633826,18.50156262516976,0.658,60.36434,18-45-38,0.09443439400000005,0.06815242400000002,0.3778991279999998,355.0,0.09197594700000002,0.004479679000000002,0.039869138000000005,1
73.8220929633826,18.50156262516976,0.658,60.36434,18-45-38,0.655463714,-0.32277946599999996,0.42224248799999986,356.0,0.04212934300000001,0.0038688138000000016,0.06381505500000001,1
73.8220929633826,18.50156262516976,0.658,60.36434,18-45-38,1.16674877,-0.626671034,1.011029426,355.0,-0.009794202999999987,-0.013235412799999999,0.0687019754,1
73.8220929633826,18.50156262516976,0.658,60.36434,18-45-38,1.040917866,-0.51327706,1.2675869399999997,353.0,-0.030074928999999983,-0.0220318722,0.05416338260000001,1
73.8220929633826,18.50156262516976,0.658,60.36434,18-45-38,0.3422318660000001,-0.33861065999999995,1.2569698319999998,353.0,-0.05927428939999998,-0.028384857199999995,0.06222680380000001,1
73.8220929633826,18.50156262516976,0.658,60.36434,18-45-38,0.2135722840000001,-0.18974514599999998,1.3647337919999998,354.0,-0.07845545799999999,-0.0261857428,0.04915428780000001,1
73.8220929633826,18.50156262516976,0.658,60.36434,18-45-38,-0.10786115599999987,0.187411104,1.555608012,354.0,-0.04326962139999998,-0.0115249768,0.008470663800000005,1
73.82206446491182,18.50156396627426,0.52999998,63.337223,18-45-38,-1.054928076,0.561606404,1.100415892,354.0,0.0026674466000000145,0.00044798200000000096,-0.029158634199999995,1
73.82206446491182,18.50156396627426,0.52999998,63.337223,18-45-38,-1.51816139,0.6069334,0.8641522719999999,352.0,0.015739961600000015,0.012298767800000002,-0.036489016799999996,1
73.82206446491182,18.50156396627426,0.52999998,63.337223,18-45-39,-1.46763789,0.68638592,0.8555333699999998,352.0,0.05752314400000001,0.016941329800000002,-0.054081936,1
73.82206446491182,18.50156396627426,0.52999998,63.337223,18-45-39,-1.9512898399999998,0.655019,1.6338304099999998,352.0,0.054468819400000014,0.0283034232,-0.088412564,1
73.82206446491182,18.50156396627426,0.52999998,63.337223,18-45-39,-2.52296538,0.71492024,2.52229101,351.0,0.07914777480000001,0.0377107474,-0.10722721399999999,1
73.82206446491182,18.50156396627426,0.52999998,63.337223,18-45-39,-3.1397028,0.607468796,3.95657195,352.0,0.13522520080000003,0.0825482572,-0.140336108,1
73.82206446491182,18.50156396627426,0.52999998,63.337223,18-45-39,-3.4586588,0.20312213000000004,4.4471329100000005,353.0,0.1437773168,0.08670214039999999,-0.1304400912,1
73.82206446491182,18.50156396627426,0.52999998,63.337223,18-45-39,-4.434820459999999,-0.65018531,4.91901824,353.0,0.045428012800000014,0.13520484439999997,-0.12726359120000003,1
73.82206446491182,18.50156396627426,0.52999998,63.337223,18-45-39,-4.58081614,-0.9726375639999999,5.61421072,352.0,-0.000753395999999995,0.155485573,-0.08181521719999998,1
73.82204250432551,18.50156467873603,0.4059999999999999,65.634315,18-45-39,-4.17874366,-1.008663184,4.561728594,353.0,-0.13306680199999998,0.155974266,-0.0925664472,1
73.82204250432551,18.50156467873603,0.4059999999999999,65.634315,18-45-39,-3.8620555600000004,-0.7989217799999999,2.672635014,353.0,-0.256828098,0.136182232,-0.0699644372,1
73.82204250432551,18.50156467873603,0.4059999999999999,65.634315,18-45-39,-3.162985008,-0.3010455999999998,1.7813665139999997,354.0,-0.25194117799999993,0.1458339028,-0.0704531294,1
73.82204250432551,18.50156467873603,0.4059999999999999,65.634315,18-45-40,-2.125977616,0.7561927,1.2999258939999998,354.0,-0.14552845199999997,0.12628621280000002,-0.0736296294,1
73.82204250432551,18.50156467873603,0.4059999999999999,65.634315,18-45-40,-1.199975416,0.9297258480000001,-0.20070122600000023,354.0,-0.013092871999999967,0.1224988468,-0.1094263314,1
73.82204250432551,18.50156467873603,0.4059999999999999,65.634315,18-45-40,-0.5896835959999999,0.5818250820000002,-0.08594428000000023,354.0,0.09197594480000001,0.10783808040000001,-0.08987864139999999,1
73.82204250432551,18.50156467873603,0.4059999999999999,65.634315,18-45-40,-0.164615856,0.28280812680000017,0.4490687399999998,352.0,0.1496416228,0.0858469308,-0.0741183162,1
73.82204250432551,18.50156467873603,0.4059999999999999,65.634315,18-45-40,-0.02278542799999999,-0.5157653731999998,2.35691672,352.0,0.13327043480000003,0.0642223014,-0.058113646199999994,1
73.82204250432551,18.50156467873603,0.4059999999999999,65.634315,18-45-40,0.19833973400000002,-1.2089471732,2.84213432,351.0,0.013540844800000007,0.0204843482,-0.013276138199999992,1
73.82204250432551,18.50156467873603,0.4059999999999999,65.634315,18-45-40,0.00693429400000003,-1.1715496011999997,2.6210798360000003,351.0,-0.1469945412,0.011321369000000001,-0.004846198199999994,1
73.82204250432551,18.50156467873603,0.4059999999999999,65.634315,18-45-40,-0.524179106,-0.8156864151999997,2.0966806159999996,350.0,-0.231416118,0.017796540399999998,0.012746720000000003,1
73.82202615961432,18.50156744476408,0.29399998,67.32033,18-45-40,-0.21301793799999996,-0.5257947999999999,1.6505762159999997,350.0,-0.310462078,0.014742214200000001,0.0419460788,1
73.82202615961432,18.50156744476408,0.29399998,67.32033,18-45-40,-0.12971731799999997,0.16866321000000017,-0.20155246400000024,351.0,-0.3140050968,0.0440637428,0.010791950200000006,1
73.82202615961432,18.50156744476408,0.29399998,67.32033,18-45-41,-0.027456171999999966,0.6196267900000001,-1.2250617840000002,351.0,-0.22848396019999995,0.06666575699999999,-0.0435750558,1
73.82202615961432,18.50156744476408,0.29399998,67.32033,18-45-41,-0.321962132,0.8405372500000002,-1.2998473750000001,350.0,-0.16177747499999998,0.049928049200000005,-0.03612249979999999,1
73.82202615961432,18.50156744476408,0.29399998,67.32033,18-45-41,-0.118019564,0.46611727800000013,-0.8355893550000003,351.0,-0.06452772699999998,0.044674608399999996,-0.034289903999999996,1
73.82202615961432,18.50156744476408,0.29399998,67.32033,18-45-41,0.0015264619999999951,-0.10356426199999982,-0.24714253500000033,353.0,0.05569055100000001,0.0553036638,-0.04833980439999999,1
73.82202615961432,18.50156744476408,0.29399998,67.32033,18-45-41,0.034073562,-0.6077445919999998,0.7893367249999999,353.0,0.0924646418,0.0340455558,-0.029769500799999994,1
73.82202615961432,18.50156744476408,0.29399998,67.32033,18-45-41,0.049623862,-0.9426288519999998,1.7763917450000002,353.0,0.06986262840000002,0.0197513088,-0.003380121799999994,1
73.82202615961432,18.50156744476408,0.29399998,67.32033,18-45-41,0.21233695999999996,-1.1249959919999997,2.09169616,352.0,0.0790256064,0.020117827799999998,0.008226318800000005,1
73.82202615961432,18.50156744476408,0.29399998,67.32033,18-45-41,-0.16425950800000005,-0.9646259279999999,1.49389368,353.0,0.012929984400000016,0.0125430988,0.03400483080000001,1
73.82201249711215,18.50157050415873,0.262,68.724655,18-45-41,-0.14154770800000005,-0.6344785659999999,1.2038361439999998,353.0,-0.08334237759999999,0.0114435412,0.04561127,1
73.82201249711215,18.50157050415873,0.262,68.724655,18-45-41,-0.30375213600000006,-0.14953250599999984,0.1816106239999999,352.0,-0.16116661359999998,0.026959519200000004,0.053552519,1
73.82201249711215,18.50157050415873,0.262,68.724655,18-45-42,-0.4550423912,0.2668169040000002,-0.6381502560000001,351.0,-0.1677639588,0.05994624319999999,0.035837428000000005,1
73.82201249711215,18.50157050415873,0.262,68.724655,18-45-42,-0.27924922920000006,0.7220100440000002,-1.3515367560000002,352.0,-0.14345152199999997,0.0897564692,0.009936741400000008,1
73.82201249711215,18.50157050415873,0.262,68.724655,18-45-42,0.27083637079999995,0.5242769320000003,-1.3144145760000001,357.0,-0.08700757199999999,0.124209266,-0.022561288599999996,1
73.82201249711215,18.50157050415873,0.262,68.724655,18-45-42,0.07731930679999996,0.46875859080000015,-2.1055747600000005,2.0,-0.05878559799999998,0.131417476,-0.018040885399999994,1
73.82201249711215,18.50157050415873,0.262,68.724655,18-45-42,0.3402496268,0.3269943262000002,-0.2820880000000002,5.0,-0.00502945399999998,0.122621016,-0.019384789799999996,1
73.82201249711215,18.50157050415873,0.262,68.724655,18-45-42,0.06648248199999998,0.03456249620000018,0.6163609799999998,7.0,0.051903186000000025,0.10453940400000002,0.001751146600000003,1
73.82201249711215,18.50157050415873,0.262,68.724655,18-45-42,0.153573102,-0.5348325637999999,2.79810846,9.0,0.099550672,0.0736296206,0.044511712599999996,1
73.82201249711215,18.50157050415873,0.262,68.724655,18-45-42,0.26363616199999995,-0.6985672037999998,4.00698028,12.0,0.10346020959999999,-0.007248935399999995,0.10669779859999999,1
73.8220017682761,18.501572599634528,0.36,69.8326,18-45-42,-0.8061240680000001,-0.8684175525999998,5.30096888,16.0,0.2191580856,-0.0647924414,0.1453044826,1
73.8220017682761,18.501572599634528,0.36,69.8326,18-45-42,-1.6430370000000003,-1.2902257879999999,4.079875379999999,20.0,0.3320459736,-0.0711454394,0.1235576804,1
73.8220017682761,18.501572599634528,0.36,69.8326,18-45-43,-2.2455432,-1.203116414,4.27652014,26.0,0.3083444026,-0.05782857539999999,0.051597757999999994,1
73.8220017682761,18.501572599634528,0.36,69.8326,18-45-43,-1.9331217400000003,-1.048503304,2.8490601399999997,29.0,0.26863816459999995,-0.005782853999999999,0.004438962000000002,1
73.8220017682761,18.501572599634528,0.36,69.8326,18-45-43,-2.053288868,-0.912495804,1.7395670799999998,31.0,0.264728627,0.059946248000000014,-0.056036701,1
73.8220017682761,18.501572599634528,0.36,69.8326,18-45-43,-0.7958732200000003,-0.7307283409999998,1.197411448,32.0,0.135469543,0.10918198679999999,-0.11309151540000002,1
73.8220017682761,18.501572599634528,0.36,69.8326,18-45-43,-0.31878930800000027,-0.2993816457999999,0.9654036139999999,32.0,-0.013581569000000002,0.11455760080000002,-0.09757553840000001,1
73.8220017682761,18.501572599634528,0.36,69.8326,18-45-43,0.5483813823999999,-0.16675225179999983,0.17595171399999998,33.0,-0.018101972,0.1102815428,-0.03746640180000001,1
73.8220017682761,18.501572599634528,0.36,69.8326,18-45-43,0.09379917239999988,-0.027755745799999842,0.03300924599999999,34.0,-0.0226223748,0.0813265268,-0.02317215520000001,1
73.82199355401099,18.501575742848217,0.256,70.668045,18-45-43,0.042091320399999875,0.4941493942000002,0.2703016466,35.0,0.006088291200000001,0.06471099100000001,-0.02146173280000001,1
73.82199355401099,18.501575742848217,0.256,70.668045,18-45-43,-0.2630589276000001,0.6509853312000002,0.3828208266,36.0,0.0759712752,0.05383758940000001,-0.005579236400000012,1
73.82199355401099,18.501575742848217,0.256,70.668045,18-45-43,-0.14789490360000013,0.8451459760000002,0.14728576059999998,36.0,0.11555534320000001,0.05102760940000001,-0.014986561400000011,1
73.82199355401099,18.501575742848217,0.256,70.668045,18-45-44,-0.1730658940000001,0.8244428520000001,-0.04669812740000001,37.0,0.1436551472,0.07460700740000001,-0.06544403400000001,1
73.82199355401099,18.501575742848217,0.256,70.668045,18-45-44,-0.4026215540000001,0.7372495540000001,-0.7092748594,38.0,0.147809032,0.0654440294,-0.06800966780000002,1
73.82199355401099,18.501575742848217,0.256,70.668045,18-45-44,-0.03142147400000015,0.09858837400000016,-0.7123281676,38.0,0.070473494,0.0631227416,-0.0507832676,1
73.82199355401099,18.501575742848217,0.256,70.668045,18-45-44,0.9627099659999999,-0.35194663799999987,-0.6332685416,39.0,-0.028731022000000012,0.029036458400000003,-0.02524909960000001,1
73.82199355401099,18.501575742848217,0.256,70.668045,18-45-44,1.18601177,-0.6861127779999998,0.39309109839999995,39.0,-0.113030424,-0.013113245599999993,0.023009256399999994,1
73.82199355401099,18.501575742848217,0.256,70.668045,18-45-44,0.7110903899999999,-0.46510372199999983,0.5308841864,40.0,-0.21272363600000005,-0.07041240479999998,0.1125621024,1
73.82199355401099,18.501575742848217,0.256,70.668045,18-45-44,0.39652525999999994,-0.2761445999999999,1.2274812663999999,41.0,-0.30190996000000003,-0.08470665119999998,0.1369967116,1
73.82199355401099,18.501575742848217,0.256,70.668045,18-45-44,0.25596475999999985,0.36578196000000013,1.248996232,42.0,-0.229216998,-0.06796894359999998,0.10755300599999999,1
73.82198391482234,18.50158081389964,0.148,71.640434,18-45-44,0.06317257999999981,0.9913778200000001,1.5757833780000001,43.0,-0.15676838080000002,-0.051109059599999986,0.07248934,1
73.82198391482234,18.50158081389964,0.148,71.640434,18-45-44,0.09433741999999981,0.9938722520000001,1.1064308779999998,44.0,-0.03532836880000002,-0.03571525359999999,0.016167563999999995,1
73.82198391482234,18.50158081389964,0.148,71.640434,18-45-45,0.15743183999999982,0.6322355240000002,1.578705958,44.0,0.061677033199999974,-0.0032172233999999884,-0.039543344,1
73.82198391482234,18.50158081389964,0.148,71.640434,18-45-45,0.9193351999999997,0.6404115640000001,1.661014718,44.0,0.1873930972,0.0010588334000000102,-0.099041616,1
73.82198391482234,18.50158081389964,0.148,71.640434,18-45-45,0.5709550119999999,0.49013519400000016,1.13164138,43.0,0.12484049719999998,-0.02117666179999999,-0.08963429040000001,1
73.82198391482234,18.50158081389964,0.148,71.640434,18-45-45,0.0699768459999998,-0.05650902599999981,1.00786768,44.0,0.10871365439999998,-0.02875139379999999,-0.081448696,1
73.82198391482234,18.50158081389964,0.148,71.640434,18-45-45,-0.07904029400000019,-0.0752697059999998,1.3246841799999998,44.0,0.027590747399999983,-0.039746967799999984,-0.04968370400000001,1
73.82198391482234,18.50158081389964,0.148,71.640434,18-45-45,0.2660204119999998,-0.1313035979999998,1.05485884,44.0,-0.049989138600000024,-0.07371107559999998,-0.028669842,1
73.82198391482234,18.50158081389964,0.148,71.640434,18-45-45,-0.06402119400000017,-0.05355757799999981,0.32382859999999986,44.0,-0.1388089426,-0.10278826199999998,0.0184889524,1
73.82197729311883,18.501585759222507,0.104,72.30128,18-45-45,0.12840421399999985,-0.12644003799999978,0.748432586,44.0,-0.12512556140000003,-0.12575679879999999,0.030950603599999998,1
73.82197729311883,18.501585759222507,0.104,72.30128,18-45-45,0.2762822799999999,0.10822126120000017,0.6038022259999998,45.0,-0.12903509860000004,-0.14371623279999998,0.0255749892,1
73.82197729311883,18.501585759222507,0.104,72.30128,18-45-45,0.2517026831999999,0.3745050592000002,-0.4055705340000001,45.0,-0.10618873920000002,-0.1603317668,0.020321548000000002,1
73.82197729311883,18.501585759222507,0.104,72.30128,18-45-46,0.33657950699999983,0.5473213312000003,-0.9858680740000001,45.0,-0.04779002120000002,-0.183055956,0.014090624800000002,1
73.82197729311883,18.501585759222507,0.104,72.30128,18-45-46,0.4186498329999998,0.5480535512000001,-0.8760459540000001,45.0,-0.019079356800000023,-0.184277686,0.0007737624000000012,1
73.82197729311883,18.501585759222507,0.104,72.30128,18-45-46,0.3065401469999999,0.5256458272000002,-1.0669481,46.0,0.013296501199999977,-0.18696549,-0.004724025199999998,1
73.82197729311883,18.501585759222507,0.104,72.30128,18-45-46,0.1665282729999998,0.4345474240000001,-1.4187205,47.0,0.037364591999999974,-0.1692504,-0.0166969838,1
73.82197729311883,18.501585759222507,0.104,72.30128,18-45-46,0.44053946979999986,0.2871212000000002,-0.7319416400000001,48.0,0.03797545739999998,-0.14493796479999999,-0.0389324786,1
73.82197729311883,18.501585759222507,0.104,72.30128,18-45-46,0.5182393699999998,0.22692413280000015,0.20920185999999993,47.0,0.03919718739999998,-0.1374854048,-0.0381994398,1
73.82197729311883,18.501585759222507,0.104,72.30128,18-45-46,0.4255519079999998,0.09249973280000019,0.71202732,47.0,0.027346400999999975,-0.1451823068,-0.016208289799999998,1
73.82197167724371,18.50159254856408,0.164,72.8499,18-45-46,0.31586279399999984,0.0571353928000002,0.8291441,48.0,-0.006984226200000018,-0.15324572479999998,0.00016289820000000289,1
73.82197167724371,18.50159254856408,0.164,72.8499,18-45-46,-0.23756163200000016,0.5039800568000002,0.31374884000000003,49.0,-0.02384410740000002,-0.1765807728,0.044756058800000005,1
73.82197167724371,18.50159254856408,0.164,72.8499,18-45-46,-0.7979902320000002,1.2408807508000002,-0.31204070000000006,48.0,0.0023009247999999814,-0.185255058,0.058805959000000005,1
73.82197167724371,18.50159254856408,0.164,72.8499,18-45-47,-0.9504722660000002,1.6155051860000005,-1.13864866,47.0,0.042618028799999985,-0.188187214,0.06369288040000001,1
73.82197167724371,18.50159254856408,0.164,72.8499,18-45-47,-1.2097450040000002,1.6182094260000004,-2.30494136,47.0,0.13913474079999996,-0.17364861999999998,0.04414519100000001,1
73.82197167724371,18.50159254856408,0.164,72.8499,18-45-47,-0.9514695640000002,1.8680743800000001,-2.67442862,47.0,0.22758803079999995,-0.1505579168,-0.00044797220000000195,1
73.82197167724371,18.50159254856408,0.164,72.8499,18-45-47,-0.1858975040000002,1.3294254000000003,-1.7921141200000001,48.0,0.312620472,-0.12160290879999999,-0.0666657642,1
73.82197167724371,18.50159254856408,0.164,72.8499,18-45-47,0.1148063699999998,0.4519557800000002,-1.5306720520000001,49.0,0.369675286,-0.12673417879999999,-0.0737518004,1
73.82197167724371,18.50159254856408,0.164,72.8499,18-45-47,0.12180281399999981,-0.06503067999999981,-0.9720389919999999,52.0,0.33265685479999996,-0.1439605768,-0.07387397339999999,1
73.82197167724371,18.50159254856408,0.164,72.8499,18-45-47,0.6649425739999998,-0.4045959599999998,0.417602808,53.0,0.2979597048,-0.16045394080000003,-0.0684983586,1
73.82196513935924,18.501606797799468,0.42,73.47437,18-45-47,0.3874943439999998,-0.9724431999999998,1.302540288,55.0,0.25813128679999997,-0.18818722000000002,-0.030869057999999998,1
73.82196513935924,18.501606797799468,0.42,73.47437,18-45-47,0.09238722399999981,-0.8739034639999999,1.401446408,54.0,0.19105828379999995,-0.220074388,0.004683302,1
73.82196513935924,18.501606797799468,0.42,73.47437,18-45-47,0.12639899199999982,-0.648814198,1.5658552360000002,53.0,0.1265509138,-0.237789478,0.0283848728,1
73.82196513935924,18.501606797799468,0.42,73.47437,18-45-48,0.09584789199999981,-0.7546174979999998,1.2331204760000003,52.0,0.13400347099999999,-0.22239567200000004,0.0156788768,1
73.82196513935924,18.501606797799468,0.42,73.47437,18-45-48,-0.04435133800000017,-0.2703634179999999,0.769443808,50.0,0.12862786099999995,-0.213843556,0.0024841873999999985,1
73.82196513935924,18.501606797799468,0.42,73.47437,18-45-48,-0.02750758800000016,0.12938022200000013,0.468041878,51.0,0.12239703699999997,-0.184888546,-0.022439115199999998,1
73.82196513935924,18.501606797799468,0.42,73.47437,18-45-48,0.33242161199999987,0.01465320600000013,-0.081477422,52.0,0.13864605199999996,-0.146037514,-0.0466293792,1
73.82196513935924,18.501606797799468,0.42,73.47437,18-45-48,0.6611494099999998,-0.3010309199999999,-0.058012737999999994,52.0,0.14353297399999998,-0.107308658,-0.07411831499999999,1
73.82196513935924,18.501606797799468,0.42,73.47437,18-45-48,0.9438685439999999,-0.2693136199999999,0.493206382,53.0,0.13058262899999998,-0.09851220000000001,-0.05628105060000001,1
73.82196513935924,18.501606797799468,0.42,73.47437,18-45-48,0.8778059619999998,-0.6654161479999999,0.91814749,52.0,0.10932451699999998,-0.06222680599999999,-0.06581054859999999,1
73.82196513935924,18.501606797799468,0.42,73.47437,18-45-48,0.9657034219999998,-0.9777435279999999,1.1145723399999998,52.0,0.14964162499999997,-0.0500095006,-0.0631227406,1
73.821956589818,18.501626662909985,0.41,74.343056,18-45-48,0.5680706119999999,-1.170801268,1.59891992,52.0,0.14841989499999997,-0.0380365416,-0.05188282079999999,1
73.821956589818,18.501626662909985,0.41,74.343056,18-45-48,0.13662471799999987,-1.004516518,1.3268216,52.0,0.11543317139999995,-0.0346156968,-0.021095213800000002,1
73.821956589818,18.501626662909985,0.41,74.343056,18-45-49,-0.06690560600000013,-1.078615478,0.3628304,52.0,0.10321586679999999,-0.0037059164000000006,-0.023416501800000003,1
73.821956589818,18.501626662909985,0.41,74.343056,18-45-49,-0.23480782400000014,-1.07844801,-0.27203752,52.0,0.08391252379999997,-0.011524991200000001,-0.0120544078,1
73.821956589818,18.501626662909985,0.41,74.343056,18-45-49,-0.05497357200000012,-0.9310053819999998,0.19166004,51.0,-0.00954986020000002,-0.007248920600000002,0.0226427382,1
73.821956589818,18.501626662909985,0.41,74.343056,18-45-49,-0.08582896200000012,-0.965247042,-0.28792183999999993,52.0,-0.06318382820000001,-0.019832744800000003,0.023009257600000003,1
73.821956589818,18.501626662909985,0.41,74.343056,18-45-49,-0.6294879080000001,-0.46021831199999985,-0.23669413199999995,53.0,-0.013215050600000017,-0.001018094600000001,-0.030624710399999998,1
73.821956589818,18.501626662909985,0.41,74.343056,18-45-49,-0.6838972820000001,-0.1428749859999999,0.10832788800000007,57.0,0.02270382699999998,-0.0008959210000000009,-0.043086361399999995,1
73.821956589818,18.501626662909985,0.41,74.343056,18-45-49,-0.37519769800000013,-0.2772290059999999,0.25121434800000003,58.0,0.020260366199999977,-0.0008959210000000009,-0.0094887734,1
73.821956589818,18.501626662909985,0.41,74.343056,18-45-49,-0.4327566100000002,-0.11397427399999993,0.21675552800000003,58.0,-0.028364503800000017,-0.018611027800000002,-0.0071674874,1
73.82194980047643,18.501649252139032,0.602,75.10026,18-45-49,-0.5068136200000002,0.49501076600000016,-0.006521651999999989,58.0,-0.01321504620000002,-0.012258028600000002,-0.009977467600000001,1
73.82194980047643,18.501649252139032,0.602,75.10026,18-45-49,0.1117276959999999,0.4878925260000001,0.16635972400000001,56.0,-0.06098470820000003,-0.034127004800000006,0.011158470399999999,1
73.82194980047643,18.501649252139032,0.602,75.10026,18-45-50,0.14743237999999986,0.7281709600000001,0.6007870040000001,55.0,-0.09592620140000002,-0.028262698800000007,0.0021176649999999964,1
73.82194980047643,18.501649252139032,0.602,75.10026,18-45-50,-0.3762083940000001,1.3303935800000002,0.5523852240000001,57.0,-0.03984876960000002,-0.019588412000000006,-0.051394129,1
73.82194980047643,18.501649252139032,0.602,75.10026,18-45-50,-0.6580845240000001,1.3070022440000002,-0.20867679999999994,59.0,0.06289876239999997,0.0008144877999999988,-0.0825482554,1
73.82194980047643,18.501649252139032,0.602,75.10026,18-45-50,-0.5344845180000001,1.2371427340000003,0.11230054800000007,60.0,0.08379035359999998,-0.0032172234000000023,-0.0730187578,1
73.82194980047643,18.501649252139032,0.602,75.10026,18-45-50,-0.19126373400000007,0.815473165,0.12305445400000008,67.0,0.08085819999999998,-0.0033393961999999998,-0.0490728392,1
73.82194980047643,18.501649252139032,0.602,75.10026,18-45-50,-0.0713471740000001,0.4655265710000001,-0.18148937599999995,72.0,0.04493932319999998,-0.0410908682,-0.008022695199999996,1
73.82194980047643,18.501649252139032,0.602,75.10026,18-45-50,0.12313820599999989,0.3690841710000001,-0.20554853599999995,77.0,0.006088292199999979,-0.0509868854,0.025086199599999998,1
73.82194091565907,18.50167963653803,0.714,76.2209,18-45-50,0.24945184599999992,0.3865968730000001,0.15028818800000007,79.0,-0.03276273780000002,-0.04402302179999999,0.025697064599999993,1
73.82194091565907,18.50167963653803,0.714,76.2209,18-45-50,0.4544744699999999,0.19156074700000011,0.39534467400000006,77.0,-0.02201150860000002,-0.029484428999999996,0.011402817999999995,1
73.82194091565907,18.50167963653803,0.714,76.2209,18-45-50,0.03707583599999993,0.41178589600000015,0.637048704,73.0,0.013296504999999981,-0.006638068999999998,-0.02133956060000001,1
73.82194091565907,18.50167963653803,0.714,76.2209,18-45-51,-0.19414880400000006,0.6866718360000001,0.6357046540000001,72.0,0.08256862499999998,0.0217060782,-0.06165666660000001,1
73.82194091565907,18.50167963653803,0.714,76.2209,18-45-51,0.19812447599999994,0.49329128800000016,1.0775622940000003,75.0,0.08672250799999999,0.0327016524,-0.0689870494,1
73.82194091565907,18.50167963653803,0.714,76.2209,18-45-51,0.3511818859999999,0.32579346200000014,1.1064761539999999,77.0,0.125817884,0.0305025378,-0.06568837720000001,1
73.82194091565907,18.50167963653803,0.714,76.2209,18-45-51,0.07054805199999993,0.42122192800000013,0.7769353200000001,78.0,0.10895800259999999,0.029280807400000004,-0.061045801200000006,1
73.82194091565907,18.50167963653803,0.714,76.2209,18-45-51,0.03393237199999992,0.30509147600000014,0.8380001800000001,77.0,0.030278560599999983,0.024149539400000003,-0.0408872476,1
73.82194091565907,18.50167963653803,0.714,76.2209,18-45-51,0.22952332199999997,-0.006446069999999882,0.792809506,76.0,-0.012604180400000026,0.015353079800000002,-0.016086118000000003,1
73.82194091565907,18.50167963653803,0.714,76.2209,18-45-51,0.011692125999999942,0.02592335200000012,0.503036386,74.0,-0.017246756400000025,0.018407405800000002,-0.027203866000000004,1
73.82193244993687,18.50170997902751,0.7160000000000001,77.4383,18-45-51,0.031708639999999955,-0.011689753999999886,0.3888660340000001,76.0,-0.030563620400000026,0.0199956554,-0.0350229408,1
73.82193244993687,18.50170997902751,0.7160000000000001,77.4383,18-45-51,0.37016305399999994,-0.06293868599999988,0.736034994,76.0,-0.03337360040000002,0.016452637200000002,-0.029525153800000002,1
73.82193244993687,18.50170997902751,0.7160000000000001,77.4383,18-45-51,0.5433073879999999,-0.04233493399999988,0.28894426800000006,76.0,-0.010527242400000025,-0.001995493999999998,-0.0173078482,1
73.82193244993687,18.50170997902751,0.7160000000000001,77.4383,18-45-52,0.527359474,0.4323043860000001,0.9822233419999999,76.0,-0.033740121400000024,0.009488772400000001,-0.007167485800000003,1
73.82193244993687,18.50170997902751,0.7160000000000001,77.4383,18-45-52,0.36118624399999993,0.49750137200000016,0.9391059720000001,80.0,-0.017491105400000023,-0.004683300999999997,0.014090625399999996,1
73.82193244993687,18.50170997902751,0.7160000000000001,77.4383,18-45-52,-0.017914010000000057,0.6325712200000002,-0.08444201600000004,81.0,0.00999783059999998,-0.0004072435999999957,0.008715011399999995,1
73.82193244993687,18.50170997902751,0.7160000000000001,77.4383,18-45-52,0.22762292999999997,0.8085784920000002,-0.24241128760000002,80.0,0.01903863599999998,0.026104307400000006,-0.0366111896,1
73.82193244993687,18.50170997902751,0.7160000000000001,77.4383,18-45-52,0.71817401,0.44613991200000014,0.16527483839999996,77.0,0.10590367199999998,0.0527380336,-0.0737517948,1
73.82193244993687,18.50170997902751,0.7160000000000001,77.4383,18-45-52,1.001156514,-0.2886796879999999,-0.27762486160000005,74.0,0.15013031519999998,0.020973043600000008,-0.0766839488,1
73.82193244993687,18.50170997902751,0.7160000000000001,77.4383,18-45-52,1.3831255800000002,-0.5068906679999998,0.06728454839999994,76.0,0.09099855919999997,0.004113164000000005,-0.0691092206,1
73.82192180491984,18.50174308754504,0.73399996,79.06669,18-45-52,1.6911353500000001,-0.7366575099999999,0.8271881384,78.0,0.022825997199999965,-0.029606596999999995,-0.023172152600000006,1
73.82192180491984,18.50174308754504,0.73399996,79.06669,18-45-52,1.220042468,-0.6589135999999998,0.651028084,81.0,-0.007472918800000035,-0.051353399399999985,0.021421009999999997,1
73.82192180491984,18.50174308754504,0.73399996,79.06669,18-45-52,0.5136261999999999,-0.16173017999999978,0.3697653900000001,82.0,-0.08456411160000003,-0.065647647,0.046833002199999994,1
73.82192180491984,18.50174308754504,0.73399996,79.06669,18-45-53,0.40938233999999996,0.3693624600000002,-0.43535538999999995,81.0,-0.11193087280000005,-0.0456112696,0.02801835379999999,1
73.82192180491984,18.50174308754504,0.73399996,79.06669,18-45-53,0.6854946799999999,0.6019581000000003,-0.9433540099999999,80.0,-0.059762980800000046,-0.022031872199999997,0.010791954399999993,1
73.82192180491984,18.50174308754504,0.73399996,79.06669,18-45-53,0.6268649939999998,0.9835525600000002,-1.14771538,82.0,0.005966123199999962,-0.0139684522,-0.02366084720000001,1
73.82192180491984,18.50174308754504,0.73399996,79.06669,18-45-53,0.17653297599999984,0.7862123600000002,-1.130113674,82.0,0.01048652639999996,-0.052452963799999995,0.01934406819999999,1
73.82192180491984,18.50174308754504,0.73399996,79.06669,18-45-53,0.7238638039999998,0.7350105340000002,-1.233636708,82.0,-0.012115488800000036,-0.08043058919999999,0.055385119999999996,1
73.82192180491984,18.50174308754504,0.73399996,79.06669,18-45-53,0.3257347839999998,0.7042560540000002,-0.4243561079999999,82.0,0.021237753199999963,-0.0917926826,0.0788423464,1
73.82192180491984,18.50174308754504,0.73399996,79.06669,18-45-53,-0.6725425960000002,0.6356660780000002,-0.28029694799999993,83.0,0.015984311999999962,-0.12575678799999998,0.11586078039999999,1
73.82191124372184,18.50177623797208,0.77599998,80.83644,18-45-53,-0.8776871260000002,0.5153232540000002,-0.050370575999999924,82.0,-0.005273801000000036,-0.09961175599999998,0.1257567974,1
73.82191124372184,18.50177623797208,0.77599998,80.83644,18-45-53,-0.7148962860000001,0.4287952380000002,-0.5044561559999999,80.0,-0.0024638212000000353,-0.0691906658,0.0908153038,1
73.82191124372184,18.50177623797208,0.77599998,80.83644,18-45-53,-1.200655946,0.27300414600000017,-0.3610704839999999,79.0,0.044206283599999965,-0.032294407799999994,0.0485434258,1
73.82191124372184,18.50177623797208,0.77599998,80.83644,18-45-54,-1.2306895660000001,0.17250156480000017,-1.152636364,78.0,0.008776099599999958,-0.001628973799999997,0.02630792959999999,1
73.82191124372184,18.50177623797208,0.77599998,80.83644,18-45-54,-0.4822194660000001,-0.00572757919999981,-0.895569944,78.0,-0.019323702400000038,0.026592998200000006,-0.0024027368000000067,1
73.82191124372184,18.50177623797208,0.77599998,80.83644,18-45-54,-0.25807940400000007,-0.052252961199999816,-0.337681316,82.0,-0.04607959940000004,0.003135773599999998,0.005905030799999994,1
73.82191124372184,18.50177623797208,0.77599998,80.83644,18-45-54,0.31221035599999997,-0.2168752651999998,0.2948243159999999,82.0,-0.01797979840000004,-0.004561127600000001,0.011647163399999994,1
73.82191124372184,18.50177623797208,0.77599998,80.83644,18-45-54,0.825106916,-0.4056766471999998,0.954937292,79.0,-0.0033190312000000418,-0.0407243496,0.04353433059999999,1
73.82191124372184,18.50177623797208,0.77599998,80.83644,18-45-54,0.657944836,-0.18294486599999984,0.865296852,77.0,-0.04192571520000004,-0.08018624560000001,0.0800640748,1
73.82191124372184,18.50177623797208,0.77599998,80.83644,18-45-54,0.43300554799999996,0.08210926600000021,1.0734669719999999,76.0,-0.06391686200000005,-0.0873944552,0.0873944572,1
73.8219013530761,18.50181873422116,0.91399994,82.936134,18-45-54,-0.103636588,0.3238372920000002,0.04589057200000006,77.0,-0.03215186900000004,-0.0768875734,0.0734667292,1
73.8219013530761,18.50181873422116,0.91399994,82.936134,18-45-54,-0.884825588,0.9940439320000003,0.36970692000000005,79.0,-0.06318382300000004,-0.0752993244,0.05110906119999999,1
73.8219013530761,18.50181873422116,0.91399994,82.936134,18-45-54,-1.435472034,1.5048158720000002,-0.7700506199999999,79.0,0.007554368999999961,-0.033882662400000006,-0.003746638000000008,1
73.8219013530761,18.50181873422116,0.91399994,82.936134,18-45-55,-0.6776853340000001,0.9810968520000001,-0.3902941,81.0,0.09405288899999996,-0.0008959364000000053,-0.07118616600000001,1
73.8219013530761,18.50181873422116,0.91399994,82.936134,18-45-55,-0.5539972200000001,0.8151041160000002,-0.53753142,81.0,0.13314826299999996,0.0024027359999999943,-0.09574294800000002,1
73.8219013530761,18.50181873422116,0.91399994,82.936134,18-45-55,0.3807295599999999,0.5797695220000002,0.4636898400000001,80.0,0.11836532299999995,0.0032579473999999943,-0.09916379300000001,1
73.8219013530761,18.50181873422116,0.91399994,82.936134,18-45-55,1.3528160999999999,-0.1066240179999998,-0.013044679999999942,79.0,0.16870061899999994,-0.006393723800000006,-0.07033095200000002,1
73.8219013530761,18.50181873422116,0.91399994,82.936134,18-45-55,1.4540189032,-0.7897052579999999,0.58821656,78.0,0.06155485819999995,-0.048787771800000004,0.007004585999999996,1
73.8219013530761,18.50181873422116,0.91399994,82.936134,18-45-55,0.7739020631999998,-0.4972728599999998,0.6130086,80.0,0.01671734719999995,-0.06222680740000001,0.059905520000000004,1
73.8219013530761,18.50181873422116,0.91399994,82.936134,18-45-55,-0.06607008280000012,-0.19287013599999986,0.19751906800000002,81.0,0.016595173999999952,-0.04854342620000001,0.0731002088,1
73.82189372554421,18.50186873227358,1.042,85.285866,18-45-55,-0.5432966568000002,-0.13871421399999984,0.02372326800000004,80.0,0.038952842199999956,-0.009448048800000015,0.0603942108,1
73.82189372554421,18.50186873227358,1.042,85.285866,18-45-55,-1.1799436028000003,-0.17115555399999985,-0.014662383999999973,78.0,0.005233080599999956,0.01938479039999999,0.036448292199999996,1
73.82189372554421,18.50186873227358,1.042,85.285866,18-45-55,-1.1684460280000002,-0.2490181139999999,-0.525062324,78.0,-0.024454968600000043,0.022194774399999995,0.005905031199999994,1
73.82189372554421,18.50186873227358,1.042,85.285866,18-45-56,-0.9257232380000001,-0.12073079199999989,-0.08073624399999998,79.0,-0.024210622400000045,0.020606524599999995,-0.004601852800000007,1
73.82189372554421,18.50186873227358,1.042,85.285866,18-45-56,-0.4761391580000002,0.032801048000000055,0.12004235900000002,79.0,-0.034228812400000044,0.013642660799999992,-0.0325794796,1
73.82189372554421,18.50186873227358,1.042,85.285866,18-45-56,-0.7011668440000001,0.3806621400000001,-0.07970770899999995,80.0,-0.062206440600000044,-0.011036297200000008,-0.047606763600000004,1
73.82189372554421,18.50186873227358,1.042,85.285866,18-45-56,-0.7706370980000001,0.8744867200000002,-0.4484990569999999,80.0,-0.039482253000000044,-4.0723200000000735e-05,-0.071552681,1
73.82189372554421,18.50186873227358,1.042,85.285866,18-45-56,-1.0453729900000002,1.36771335,0.7746749230000003,80.0,-0.005518148000000045,0.02903645979999999,-0.113702382,1
73.82189372554421,18.50186873227358,1.042,85.285866,18-45-56,-1.1240131000000002,1.1394605500000001,0.5293069050000002,80.0,0.012196943999999956,0.044430263799999994,-0.139847414,1
73.82189372554421,18.50186873227358,1.042,85.285866,18-45-56,-0.9968655400000002,0.5224174420000002,0.4983456060000003,81.0,0.018183423599999953,0.0619010096,-0.11907799700000002,1
73.82189372554421,18.50186873227358,1.042,85.285866,18-45-56,-1.13183896,0.13193836200000017,0.9215333940000002,81.0,-0.005518147400000048,0.0736296256,-0.1003855218,1
73.82187972776592,18.501917556859556,1.00599994,88.507774,18-45-56,-1.061218314,-0.14188117999999983,1.0559160340000004,81.0,-0.013215049400000045,0.0847473736,-0.0930551398,1
73.82187972776592,18.501917556859556,1.00599994,88.507774,18-45-56,-0.274286554,-0.20639152599999985,0.2769329680000003,81.0,-0.01602502920000005,0.0783943752,-0.0436972298,1
73.82187972776592,18.501917556859556,1.00599994,88.507774,18-45-57,0.7333647659999999,-0.4024055459999998,1.1974637060000002,82.0,-0.04766784840000006,0.045774172599999996,0.005905030199999997,1
73.82187972776592,18.501917556859556,1.00599994,88.507774,18-45-57,1.062332646,-0.3112455339999998,2.1847819740000007,82.0,-0.10728829280000005,0.02439388919999999,0.047688215199999995,1
73.82187972776592,18.501917556859556,1.00599994,88.507774,18-45-57,1.2403747259999998,-0.8274079339999998,1.8524824340000001,83.0,-0.14919364880000002,-0.0032171548000000097,0.10584259,1
73.82187972776592,18.501917556859556,1.00599994,88.507774,18-45-57,0.9046597399999998,-0.7594079039999998,2.884357274,82.0,-0.23263783880000002,-0.005904960800000009,0.10694214799999999,1
73.82187972776592,18.501917556859556,1.00599994,88.507774,18-45-57,-0.13933540000000014,-0.847214034,2.88322154,82.0,-0.314249436,0.03172433659999999,0.0814079818,1
73.82187972776592,18.501917556859556,1.00599994,88.507774,18-45-57,-1.5351297,-0.6668187139999999,1.4474215600000004,82.0,-0.304719938,0.1091820506,0.0349822218,1
73.82187972776592,18.501917556859556,1.00599994,88.507774,18-45-57,-2.14046328,-0.22231949799999984,0.5690755860000003,82.0,-0.28162923400000006,0.124698028,0.0049276491999999976,1
73.82186204195023,18.50196323823184,0.97,92.17306,18-45-57,-2.2223354800000004,0.5315536620000001,-0.08426207399999966,81.0,-0.23740259000000008,0.144123476,-0.041131592800000005,1
73.82186204195023,18.50196323823184,0.97,92.17306,18-45-57,-2.107653,0.819877454,-0.5254803739999996,82.0,-0.16800830100000005,0.142657398,-0.03685553600000001,1
73.82186204195023,18.50196323823184,0.97,92.17306,18-45-57,-1.8343365200000001,1.1975406800000001,-1.0370880739999997,84.0,-0.07344636080000005,0.12042190400000001,-0.03380120960000001,1
73.82186204195023,18.50196323823184,0.97,92.17306,18-45-58,-1.322424776,1.4980108400000003,-0.6447188939999997,84.0,-0.010527242800000053,0.06654358719999999,-0.018773925600000005,1
73.82186204195023,18.50196323823184,0.97,92.17306,18-45-58,-1.1418166900000002,0.8650928600000002,-0.4532638999999996,83.0,0.03504330399999995,0.06287839519999999,-0.0074118320000000045,1
73.82186204195023,18.50196323823184,0.97,92.17306,18-45-58,-0.9096616060000002,0.37686654000000014,0.4625125000000003,83.0,0.05679010559999994,0.06336708519999998,0.0012624539999999955,1
73.82186204195023,18.50196323823184,0.97,92.17306,18-45-58,-1.043971806,-0.27973765999999983,1.4783014600000004,84.0,-0.003929901400000058,0.07277440919999999,-0.017918716800000005,1
73.82186204195023,18.50196323823184,0.97,92.17306,18-45-58,-1.0046429060000002,-0.9356729399999999,2.2807466000000005,85.0,-0.03984877760000005,0.0556701832,-0.007045315600000003,1
73.82186204195023,18.50196323823184,0.97,92.17306,18-45-58,-1.18476693,-1.184297172,2.4433071680000005,87.0,-0.14699453760000006,0.05114978079999999,0.013479757599999998,1
73.82186204195023,18.50196323823184,0.97,92.17306,18-45-58,-0.9547251160000002,-1.0447067239999999,2.1379452240000005,87.0,-0.20331631440000003,0.03697770739999999,0.015923218599999994,1
73.82184125483036,18.502007662318647,1.0219999400000002,96.23433,18-45-58,-1.2041468600000003,-0.6155836039999997,1.7630084600000004,87.0,-0.20869192840000003,0.006923138399999992,0.030950502599999995,1
73.82184125483036,18.502007662318647,1.0219999400000002,96.23433,18-45-58,-0.8778004060000001,0.10391751600000024,0.9989958600000003,86.0,-0.21089104240000003,-0.04328998160000001,0.09411397259999998,1
73.82184125483036,18.502007662318647,1.0219999400000002,96.23433,18-45-58,-0.7530306360000001,0.7828723960000001,0.6747561600000004,85.0,-0.14394021240000007,-0.06247114960000001,0.10364346919999998,1
73.82184125483036,18.502007662318647,1.0219999400000002,96.23433,18-45-59,-0.9173680560000002,0.8294714026000001,0.7395870120000003,85.0,-0.04375831240000007,-0.07114543640000001,0.09277006659999999,1
73.82184125483036,18.502007662318647,1.0219999400000002,96.23433,18-45-59,-1.180524356,0.8324342746000001,0.7571849800000003,85.0,0.021115577599999935,-0.0632041882,0.07762060899999998,1
73.82184125483036,18.502007662318647,1.0219999400000002,96.23433,18-45-59,-1.1739187960000002,0.7276836346000002,0.3101512840000003,85.0,-0.032518388000000065,-0.050376018200000004,0.04658865599999999,1
73.82184125483036,18.502007662318647,1.0219999400000002,96.23433,18-45-59,-1.2849945100000002,0.27682398460000024,0.13060640400000026,85.0,0.0030339709999999327,-0.02850704380000001,0.021665352399999987,1
73.82184125483036,18.502007662318647,1.0219999400000002,96.23433,18-45-59,-1.7472518800000003,0.0025588906000002408,-0.16553683599999974,86.0,-0.019690215000000066,0.024760404199999995,-0.02195042560000001,1
73.82184125483036,18.502007662318647,1.0219999400000002,96.23433,18-45-59,-1.9983617000000002,0.21123961600000024,-0.03278831599999976,83.0,-0.05585344000000007,0.07338527819999999,-0.053593244200000015,1
73.82184125483036,18.502007662318647,1.0219999400000002,96.23433,18-45-59,-1.902774166,0.44710025600000025,0.25168610000000025,81.0,-0.06330599600000006,0.10282898339999999,-0.07106399140000001,1
73.8218305259943,18.50205858238041,1.124,99.82509,18-45-59,-1.1301879660000003,0.20055847600000026,0.5914789700000002,81.0,0.007187850399999934,0.1364265704,-0.06910922240000002,1
73.8218305259943,18.50205858238041,1.124,99.82509,18-45-59,-0.7649453740000002,0.15201416600000026,0.14336017000000023,81.0,0.022825999399999936,0.14803301,-0.06666576200000002,1
73.8218305259943,18.50205858238041,1.124,99.82509,18-45-59,-0.6327888740000003,-0.19906023999999972,0.5341137700000003,80.0,-0.011138108600000066,0.14131349399999998,-0.04992805360000001,1
73.8218305259943,18.50205858238041,1.124,99.82509,18-46-00,0.2370210059999998,-0.7045812599999997,0.12087762400000027,80.0,-0.01871283800000007,0.12213232479999998,-0.042353325600000005,1
73.8218305259943,18.50205858238041,1.124,99.82509,18-46-00,0.4298754859999998,-1.00916748,-1.0271763159999998,80.0,-0.06709336600000007,0.10551679080000001,-0.02940298160000001,1
73.8218305259943,18.50205858238041,1.124,99.82509,18-46-00,0.5521788659999999,-1.1097999599999997,-0.8233181059999998,80.0,-0.12084950640000007,0.0728965882,-0.0006923156000000097,1
73.8218305259943,18.50205858238041,1.124,99.82509,18-46-00,0.6859203539999998,-1.2004102799999998,-0.6326513935999997,78.0,-0.13245594440000008,0.0444302682,0.00908152959999999,1
73.8218305259943,18.50205858238041,1.124,99.82509,18-46-00,1.1256677119999998,-0.7349405399999999,-1.6774593935999995,78.0,-0.2179770844000001,-0.017022777800000007,0.020199277199999987,1
73.8218305259943,18.50205858238041,1.124,99.82509,18-46-00,0.6445835119999999,-0.0994144399999997,-1.6149724955999996,80.0,-0.19965112680000005,-0.023375776200000004,0.03095050579999999,1
73.8218305259943,18.50205858238041,1.124,99.82509,18-46-00,0.6618385739999998,0.24987316000000023,-1.5216064955999997,80.0,-0.1479719268000001,-0.021543181400000007,0.017877990599999987,1
73.82181602530181,18.50211541168392,1.27599992,104.28962,18-46-00,0.06490371199999985,0.9527803400000003,-1.7055985671999998,79.0,-0.09555969000000006,-0.03498221640000001,-0.003624465600000013,1
73.82181602530181,18.50211541168392,1.27599992,104.28962,18-46-00,-0.23435659800000014,1.2968544000000004,-2.1985742796,79.0,-0.06416121840000008,-0.04328998440000001,-0.019018270200000013,1
73.82181602530181,18.50211541168392,1.27599992,104.28962,18-46-00,-0.16430883600000015,1.2118350960000002,-1.8122156795999995,81.0,0.029667689599999925,-0.005660684400000007,-0.03111340220000001,1
73.82181602530181,18.50211541168392,1.27599992,104.28962,18-46-01,0.06688556499999984,0.8478004360000003,-2.1310507515999992,82.0,0.010730867199999924,-0.026918795600000007,-0.02195042360000001,1
73.82181602530181,18.50211541168392,1.27599992,104.28962,18-46-01,-0.21810691100000015,0.5683996160000003,-1.2357516515999998,82.0,0.0032783105999999256,-0.06014986440000001,0.01616756739999999,1
73.82181602530181,18.50211541168392,1.27599992,104.28962,18-46-01,-0.49956798900000016,0.26862392400000024,-1.3983412079999995,82.0,-0.050477828200000074,-0.0547742508,0.05037601959999999,1
73.82181602530181,18.50211541168392,1.27599992,104.28962,18-46-01,-0.5682901990000001,0.07513676000000027,-0.24126570799999972,82.0,-0.029708409800000068,-0.05220861680000001,0.07872016619999998,1
73.82181602530181,18.50211541168392,1.27599992,104.28962,18-46-01,-0.7110429190000002,0.1732004240000003,-0.0260081879999996,82.0,0.014151716199999925,-0.05428555840000001,0.09606873819999999,1
73.82181602530181,18.50211541168392,1.27599992,104.28962,18-46-01,-1.2914356800000002,0.25307503600000025,0.2706307220000004,82.0,0.04726061339999993,-0.0695571876,0.12465723299999998,1
73.82181602530181,18.50211541168392,1.27599992,104.28962,18-46-01,-1.0397217400000003,0.2748088900000003,0.1450047036000004,80.0,0.026857714599999926,-0.0493986352,0.07933103199999998,1
73.82179599255323,18.502175761386752,1.4240000000000002,109.65828,18-46-01,-0.6065627400000002,0.35384808200000034,0.1322523116000004,80.0,0.06668612619999993,-0.0575842292,0.048665598399999996,1
73.82179599255323,18.502175761386752,1.4240000000000002,109.65828,18-46-01,-0.7164012800000001,0.7527227460000003,-0.27015842839999965,81.0,0.004622218199999922,-0.056362499200000006,0.02362012399999999,1
73.82179599255323,18.502175761386752,1.4240000000000002,109.65828,18-46-01,-0.6242682360000001,1.0581770060000004,0.1625852716000004,80.0,-0.010527241800000078,-0.060638556200000006,0.003950264399999992,1
73.82179599255323,18.502175761386752,1.4240000000000002,109.65828,18-46-02,-0.03382305340000017,1.4490207740000005,-0.0017960783999996454,79.0,-0.013948087000000081,-0.07041240020000002,-0.004235331600000008,1
73.82179599255323,18.502175761386752,1.4240000000000002,109.65828,18-46-02,0.2946861265999998,2.2598215,1.7404368400000005,79.0,0.06827437439999992,-0.08507316580000002,0.015190182399999991,1
73.82179599255323,18.502175761386752,1.4240000000000002,109.65828,18-46-02,-0.009863753400000185,1.9236972700000003,0.6116883200000005,79.0,0.22282327479999992,-0.073100207,-0.0061901020000000116,1
73.82179599255323,18.502175761386752,1.4240000000000002,109.65828,18-46-02,0.42521692659999977,1.8304883900000004,-0.4361708799999994,78.0,0.3932546767999999,-0.06124942040000001,0.02936225239999999,1
73.82179599255323,18.502175761386752,1.4240000000000002,109.65828,18-46-02,0.7701094625999998,1.4447507700000002,0.47469264000000067,77.0,0.3432859007999999,-0.02276491180000001,0.04133521099999999,1
73.82179599255323,18.502175761386752,1.4240000000000002,109.65828,18-46-02,0.9407306999999999,0.7276094300000004,1.5604785600000006,77.0,0.3526932239999999,-0.004927647800000009,0.003339392999999988,1
73.82179599255323,18.502175761386752,1.4240000000000002,109.65828,18-46-02,0.9158982199999999,-0.4455037099999998,0.22968316000000052,76.0,0.22514455999999988,-0.02264274260000001,0.025697060999999986,1
73.82178484462202,18.50224227178842,1.336,114.846565,18-46-02,1.4683666,-0.6352002199999998,1.4310561760000007,76.0,0.06131050799999993,-0.03864741140000001,0.05428555559999999,1
73.82178484462202,18.50224227178842,1.336,114.846565,18-46-02,1.4517655999999999,-0.7864335199999998,2.1275752800000007,77.0,-0.09812532000000007,-0.055751638000000006,0.023620122599999988,1
73.82178484462202,18.50224227178842,1.336,114.846565,18-46-02,1.0733404919999998,-0.6540825999999997,0.8099123200000005,77.0,-0.06562729060000007,-0.09875655000000001,0.013357586399999991,1
73.82178484462202,18.50224227178842,1.336,114.846565,18-46-03,1.129200652,-0.27534857999999973,-0.2598021599999996,77.0,-0.04143702660000007,-0.063570712,0.039502618399999995,1
73.82178484462202,18.50224227178842,1.336,114.846565,18-46-03,0.7485008039999999,0.5502454600000002,-1.7839397599999998,77.0,0.09173160139999992,-0.04157956060000001,-0.00667879360000001,1
73.82178484462202,18.50224227178842,1.336,114.846565,18-46-03,0.4353135359999999,0.8154014504000002,-1.3207621359999995,78.0,0.15697200939999992,-0.016411913200000006,-0.03893247920000001,1
73.82178484462202,18.50224227178842,1.336,114.846565,18-46-03,0.27756763239999993,0.4435829104000003,-0.7133568199999996,77.0,0.20474167139999994,0.006556619599999991,-0.0752178742,1
73.82178484462202,18.50224227178842,1.336,114.846565,18-46-03,0.39634587239999985,-0.10585364959999977,0.3749539400000005,77.0,0.19215784799999994,0.02402736619999999,-0.08572475700000001,1
73.82178484462202,18.50224227178842,1.336,114.846565,18-46-03,0.49644253239999986,-0.5514093295999998,1.2460240200000006,78.0,0.12728395879999993,0.01071050379999999,-0.11541280800000002,1
73.82178484462202,18.50224227178842,1.336,114.846565,18-46-03,0.7191269803999999,-1.1778480295999998,2.295684692000001,78.0,0.09002117679999992,0.018651751799999994,-0.10563896400000002,1
73.82177277468145,18.502298137173057,1.10599994,119.614,18-46-03,0.6955414104,-1.1255702739999998,1.7781650120000005,78.0,0.03443243879999992,0.008144869599999991,-0.0912225442,1
73.82177277468145,18.502298137173057,1.10599994,119.614,18-46-03,0.831572574,-0.9468908079999998,1.0523612720000006,77.0,-0.02750929520000008,0.014497868199999991,-0.07656177820000001,1
73.82177277468145,18.502298137173057,1.10599994,119.614,18-46-03,0.5649337619999999,-0.5789731819999998,0.6498337920000006,77.0,-0.04510221320000008,0.019751309599999992,-0.06471099180000002,1
73.82177277468145,18.502298137173057,1.10599994,119.614,18-46-04,0.21614262559999986,0.0752006580000002,-0.41500262799999954,77.0,-0.06721553400000009,0.006556620799999992,-0.05261585900000001,1
73.82177277468145,18.502298137173057,1.10599994,119.614,18-46-04,-0.09261678240000012,0.3864099460000002,-0.7131800999999995,77.0,-0.11339694760000008,-0.00859283660000001,-0.031357749000000004,1
73.82177277468145,18.502298137173057,1.10599994,119.614,18-46-04,-0.10253504040000014,0.2304315520000002,-1.0875520599999995,78.0,-0.12304861760000008,-0.015434527000000009,-0.01608611740000001,1
73.82177277468145,18.502298137173057,1.10599994,119.614,18-46-04,-0.3280770864000001,0.3628370240000002,-1.5423406599999996,79.0,-0.10435614260000008,-0.01604539200000001,0.00859283859999999,1
73.82177277468145,18.502298137173057,1.10599994,119.614,18-46-04,-0.3133170604000001,0.4804281180000002,-2.4814928999999997,79.0,-0.08554149460000007,-0.03522656100000001,0.006271550599999988,1
73.82177277468145,18.502298137173057,1.10599994,119.614,18-46-04,-0.6525468440000001,0.2930681180000002,-2.2811200599999997,79.0,-0.08566366660000006,-0.02618575580000001,0.01409062599999999,1
73.82177277468145,18.502298137173057,1.10599994,119.614,18-46-04,-0.9329387560000001,0.1524684860000002,-2.5762395799999993,79.0,-0.057930383800000075,0.012176582199999994,0.021421009199999987,1
73.82176196202636,18.50234038196504,0.94,123.44813,18-46-04,-1.12896084,0.3638050040000002,-1.8296298199999992,80.0,-0.02286671780000008,0.024271713799999994,-0.009977465200000011,1
73.82176196202636,18.50234038196504,0.94,123.44813,18-46-04,-1.389405034,0.39032249200000024,-1.5499564799999994,80.0,-0.014192431600000078,0.049317189399999996,-0.01681915620000001,1
73.82176196202636,18.50234038196504,0.94,123.44813,18-46-04,-1.4099704400000002,0.2112676604000002,-1.3986040399999993,79.0,-0.00258599200000008,0.0770504714,0.0048054733999999865,1
73.82176196202636,18.50234038196504,0.94,123.44813,18-46-05,-1.0595507732000002,-0.29799967959999973,-0.8454604599999993,79.0,0.02453642299999992,0.08389216199999999,0.010914125599999987,1
73.82176196202636,18.50234038196504,0.94,123.44813,18-46-05,-0.7253479612000001,-0.29033309159999976,-0.4949458999999994,80.0,-0.02958623820000008,0.07986045,-0.0060679290000000136,1
73.82176196202636,18.50234038196504,0.94,123.44813,18-46-05,-0.5792248732,-0.44710589559999975,-0.9226157799999994,83.0,0.007310023799999921,0.08279260299999999,-0.004968371000000016,1
73.82176196202636,18.50234038196504,0.94,123.44813,18-46-05,-0.3628323132000001,-0.25408088159999975,-1.0835712799999995,83.0,0.01732821379999992,0.030746882999999996,-0.006312274600000015,1
73.82176196202636,18.50234038196504,0.94,123.44813,18-46-05,-0.27358287320000013,-0.2255128039999997,-0.8213637379999994,83.0,-0.0005090518000000794,0.010832676399999998,-0.013887003000000014,1
73.82176196202636,18.50234038196504,0.94,123.44813,18-46-05,-0.4968822200000001,0.28681430600000024,-0.6098380779999995,82.0,0.07682648919999993,0.0039909857999999975,-0.019873482000000015,1
73.82176196202636,18.50234038196504,0.94,123.44813,18-46-05,-1.013927572,0.5524213820000002,0.33826848200000054,82.0,0.21427116319999992,-0.010303260800000004,-0.031235574600000017,1
73.82175953127444,18.502380698919296,0.8559999400000001,126.541824,18-46-05,-1.4550136999999999,0.7000446360000002,-0.21769595799999947,81.0,0.18947003119999992,0.0377107478,-0.04821763060000001,1
73.82175953127444,18.502380698919296,0.8559999400000001,126.541824,18-46-05,-1.506334468,1.3096332560000004,-2.0906347579999993,81.0,0.32117256999999994,0.0445524392,-0.06788749200000001,1
73.82175953127444,18.502380698919296,0.8559999400000001,126.541824,18-46-05,-2.059397508,1.3629596700000004,-0.5748924599999995,81.0,0.3263038399999999,0.0816930468,-0.09073385260000001,1
73.82175953127444,18.502380698919296,0.8559999400000001,126.541824,18-46-06,-2.132899708,1.1620077140000005,-1.6884033199999997,81.0,0.22050197999999993,0.0921999288,-0.0742404918,1
73.82175953127444,18.502380698919296,0.8559999400000001,126.541824,18-46-06,-1.4385080480000003,0.8504810340000004,-2.8652280799999996,80.0,0.17175493999999988,0.0869464878,-0.0662992438,1
73.82175953127444,18.502380698919296,0.8559999400000001,126.541824,18-46-06,-1.0059272380000002,0.8466968540000005,-1.4066339599999995,79.0,0.17823011199999989,0.037832921799999995,-0.03575597980000001,1
73.82175953127444,18.502380698919296,0.8559999400000001,126.541824,18-46-06,-0.0857944700000001,-0.4359457059999997,1.6419257000000005,79.0,0.01745038799999991,0.046873727,0.0011402801999999934,1
73.82175953127444,18.502380698919296,0.8559999400000001,126.541824,18-46-06,1.1544008099999998,-0.48137664999999963,2.1047097000000003,78.0,-0.03215187200000008,0.029891672999999997,0.0346156952,1
73.82175953127444,18.502380698919296,0.8559999400000001,126.541824,18-46-06,0.7649311899999998,-0.2892719239999997,1.9271961600000005,77.0,-0.01688024200000008,0.02060652139999999,0.006271547999999992,1
73.82175953127444,18.502380698919296,0.8559999400000001,126.541824,18-46-06,0.2609537099999998,-0.23576278799999972,2.6814417200000005,77.0,-0.07906632440000008,0.037222056999999996,0.01360193039999999,1
73.82174989208579,18.502415106631812,0.774,129.83638,18-46-06,0.09744281999999982,-0.4710191759999997,2.7624140200000005,75.0,-0.13990850160000007,0.06080145699999999,0.015312353399999989,1
73.82174989208579,18.502415106631812,0.774,129.83638,18-46-06,-0.6068514660000002,-0.23355807599999964,3.48535296,73.0,-0.1588453236000001,0.0801047984,-0.01364265760000001,1
73.82174989208579,18.502415106631812,0.774,129.83638,18-46-06,-1.4013927260000003,-0.28215960879999963,0.7156266600000005,72.0,-0.041192675600000096,0.07301876040000001,-0.04516330360000002,1
73.82174989208579,18.502415106631812,0.774,129.83638,18-46-07,-0.8093264660000001,-0.23458042079999966,2.376633580000001,68.0,-0.060984709600000096,0.094399044,-0.03954334320000001,1
73.82174989208579,18.502415106631812,0.774,129.83638,18-46-07,-0.534478286,4.40632000003438e-05,2.405993300000001,66.0,-0.1016683352000001,0.0801047962,-0.025249096600000014,1
73.82174989208579,18.502415106631812,0.774,129.83638,18-46-07,-0.2644591800000001,0.24240322520000035,0.7303509000000006,67.0,-0.2003841640000001,0.0446746106,0.010791954399999987,1
73.82174989208579,18.502415106631812,0.774,129.83638,18-46-07,-0.2787392808000001,0.5045646712000004,-0.5926865019999996,71.0,-0.2224974860000001,0.015353078599999992,0.05220861939999999,1
73.82174989208579,18.502415106631812,0.774,129.83638,18-46-07,-0.10883785220000013,0.4738370940000004,0.04210831800000041,73.0,-0.2887152788000001,-0.012746721400000004,0.08666141739999998,1
73.82174989208579,18.502415106631812,0.774,129.83638,18-46-07,-0.2276581122000001,0.3329431580000003,-0.7250184219999996,74.0,-0.2829731468000001,-0.0308283326,0.08959357039999997,1
73.82174989208579,18.502415106631812,0.774,129.83638,18-46-07,-0.2540858522000001,0.30079155000000035,-0.5212997019999998,73.0,-0.2220087948000001,-0.041823906800000005,0.07407759339999999,1
73.82173765450716,18.502449598163366,0.844,133.37286,18-46-07,-0.5555951182000001,0.20193214480000038,0.2005634780000003,70.0,-0.09836966500000008,-0.040602176200000006,0.06320419019999998,1
73.82173765450716,18.502449598163366,0.844,133.37286,18-46-07,-0.23688897140000006,-0.058870321199999666,0.8013009600000002,69.0,-0.06660467300000009,-0.05233078900000001,0.04695517419999999,1
73.82173765450716,18.502449598163366,0.844,133.37286,18-46-07,-0.40105625000000006,-0.10756798319999965,0.4662580200000003,69.0,-0.0451022170000001,-0.044145195600000006,0.026430103799999986,1
73.82173765450716,18.502449598163366,0.844,133.37286,18-46-08,-0.2273897500000001,0.13165606480000033,0.6250524200000003,69.0,-0.04131485100000009,-0.05868378840000001,0.02948443039999999,1
73.82173765450716,18.502449598163366,0.844,133.37286,18-46-08,-0.3173449500000001,0.2552993728000003,0.023728692000000252,70.0,-0.06196209700000009,-0.06992370840000002,0.04487823439999999,1
73.82173765450716,18.502449598163366,0.844,133.37286,18-46-08,-0.0920616556000001,0.4584758640000003,0.8685113320000003,71.0,-0.12512556680000012,-0.08605055140000001,0.03437135259999999,1
73.82173765450716,18.502449598163366,0.844,133.37286,18-46-08,-0.8147733956,0.6385530410000004,-0.34527636799999967,70.0,-0.1164512788000001,-0.06699155500000001,0.009203703599999988,1
73.82173765450716,18.502449598163366,0.844,133.37286,18-46-08,-0.7630494456000001,0.7397924358000003,0.25945397600000036,70.0,-0.1256142576000001,-0.04732169360000001,0.004072434999999988,1
73.82173765450716,18.502449598163366,0.844,133.37286,18-46-08,-1.1748737456,0.7183944558000004,-0.45957540399999974,68.0,-0.1162069316000001,-0.02557489080000001,0.0027285313999999873,1
73.82173765450716,18.502449598163366,0.844,133.37286,18-46-08,-1.0916313056000002,0.7571458558000004,-0.34028021199999975,68.0,-0.1236594864000001,0.004968371199999991,-0.015475252600000012,1
73.82171879522502,18.50248957984149,0.97199994,137.86191,18-46-08,-1.076758036,0.30029829580000034,-1.1412014819999998,68.0,-0.051943903600000084,0.040520729199999994,-0.023538674000000013,1
73.82171879522502,18.50248957984149,0.97199994,137.86191,18-46-08,-0.35234185600000006,0.4716136788000004,0.5829710180000002,70.0,0.03284419039999992,0.05029457299999999,-0.03074688420000001,1
73.82171879522502,18.50248957984149,0.97199994,137.86191,18-46-08,-0.1875349520000001,0.42213820000000035,-0.2297567459999998,71.0,0.03406592099999992,0.056525398199999986,-0.03319034520000001,1
73.82171879522502,18.50248957984149,0.97199994,137.86191,18-46-09,-0.028970972000000074,0.3178106280000004,-0.7287765459999997,70.0,0.11079059699999991,0.07204137459999999,-0.05799147360000001,1
73.82171879522502,18.50248957984149,0.97199994,137.86191,18-46-09,-0.09175645200000007,0.3995361280000004,-0.4848309899999997,70.0,0.1329039177999999,0.08169304459999997,-0.0808378336,1
73.82171879522502,18.50248957984149,0.97199994,137.86191,18-46-09,-0.14417146600000005,0.7281619920000004,-0.8258235199999998,70.0,0.10883582699999991,0.08670213939999999,-0.0895121198,1
73.82171879522502,18.50248957984149,0.97199994,137.86191,18-46-09,-0.07927700600000005,0.7469968720000004,-1.7937389919999993,70.0,0.04359541899999991,0.105272442,-0.08804604260000001,1
73.82171879522502,18.50248957984149,0.97199994,137.86191,18-46-09,0.20354952999999992,0.9768857920000004,-0.5359354519999997,71.0,0.013663021999999914,0.0851138888,-0.07741698700000002,1
73.82171879522502,18.50248957984149,0.97199994,137.86191,18-46-09,0.4812634719999999,0.9000677080000005,-0.28308121199999964,72.0,0.004500041999999915,0.0776613336,-0.07240789300000001,1
73.82171879522502,18.50248957984149,0.97199994,137.86191,18-46-09,0.6368640799999998,0.8274936680000003,-0.07338643199999959,73.0,0.03760893799999991,0.06336708759999998,-0.03893247800000001,1
73.82171007804573,18.502542008645836,1.1800000000000002,142.58891,18-46-09,0.1670081699999999,0.8121044160000004,-0.7391261719999996,73.0,0.035409823999999916,0.03771074719999999,0.0012624565999999836,1
73.82171007804573,18.502542008645836,1.1800000000000002,142.58891,18-46-09,-0.6391697500000001,0.41819933600000037,-2.0621848399999996,72.0,0.07878125799999991,0.052249343199999985,0.005171993399999984,1
73.82171007804573,18.502542008645836,1.1800000000000002,142.58891,18-46-09,-1.34364349,0.4297364960000003,-2.6389907,71.0,0.12141965159999993,0.06593272479999998,0.003828089799999985,1
73.82171007804573,18.502542008645836,1.1800000000000002,142.58891,18-46-10,-0.961318492,0.6676616520000003,-1.2267040799999998,71.0,0.08989900459999992,0.0545706308,0.031439199399999986,1
73.82171007804573,18.502542008645836,1.1800000000000002,142.58891,18-46-10,-1.1722466400000002,-0.05521756799999968,-2.6776299999999997,70.0,0.036020689999999925,0.03477859679999999,0.04170173639999998,1
73.82171007804573,18.502542008645836,1.1800000000000002,142.58891,18-46-10,-1.0690998600000001,-0.09690705799999969,-1.7250445799999994,70.0,0.010730869999999915,0.03490076999999999,0.019221892999999983,1
73.82171007804573,18.502542008645836,1.1800000000000002,142.58891,18-46-10,-0.7570257120000001,-0.03328609799999967,-0.7132003399999995,70.0,-0.042047888000000075,-0.0011402816000000095,0.027896179599999987,1
73.82171007804573,18.502542008645836,1.1800000000000002,142.58891,18-46-10,0.16895550799999995,-0.26302184799999967,-0.3778234199999995,70.0,-0.05524257720000007,-0.00724893400000001,0.013968451599999987,1
73.82171007804573,18.502542008645836,1.1800000000000002,142.58891,18-46-10,0.2641572079999999,-0.6330501619999997,-0.6021285799999995,70.0,-0.07882197720000009,-0.01824450820000001,0.0008959351999999858,1
73.82171007804573,18.502542008645836,1.1800000000000002,142.58891,18-46-10,0.6123310239999998,-0.18695392599999977,0.26048644800000054,69.0,-0.05841907780000007,-0.00297287740000001,-0.022316944800000016,1
73.82169448770583,18.50259313825518,1.2599999400000002,147.79422,18-46-10,0.8160447239999999,-0.0021011279999997522,0.19479102800000048,70.0,-0.026043221200000077,-0.010425433000000012,-0.022194771400000014,1
73.82169448770583,18.50259313825518,1.2599999400000002,147.79422,18-46-10,0.781541356,0.3428991320000002,0.17599760800000047,69.0,-0.05279911920000008,-0.02007710340000001,-0.007411832800000013,1
73.82169448770583,18.50259313825518,1.2599999400000002,147.79422,18-46-10,-0.03893560400000009,0.6424095220000003,-0.14983360599999956,68.0,-0.062084270400000086,-0.01592321940000001,0.0029728765999999874,1
73.82169448770583,18.50259313825518,1.2599999400000002,147.79422,18-46-11,-0.842583684,0.9350578360000004,-0.7028841259999995,68.0,-0.04693481180000009,-0.004683298800000012,-0.012420926600000012,1
73.82169448770583,18.50259313825518,1.2599999400000002,147.79422,18-46-11,-0.8176888860000002,0.9612581320000002,-0.5761475079999996,68.0,-0.023355412600000087,0.0016696997999999879,-0.013153964600000012,1
73.82169448770583,18.50259313825518,1.2599999400000002,147.79422,18-46-11,-0.17008456600000005,0.7069997780000004,0.5104026720000004,69.0,0.009509138799999917,0.01559746779999999,-0.041375938600000016,1
73.82169448770583,18.50259313825518,1.2599999400000002,147.79422,18-46-11,0.05028360799999994,0.4533565580000003,0.9309437320000005,68.0,0.04310672679999991,-0.00285066020000001,-0.04223115060000002,1
73.82169448770583,18.50259313825518,1.2599999400000002,147.79422,18-46-11,0.3880022819999999,0.6545991980000003,1.2050247660000004,68.0,-0.005395974400000092,-0.042679072200000015,-0.0066787920000000115,1
73.82169448770583,18.50259313825518,1.2599999400000002,147.79422,18-46-11,0.8015827519999998,0.5309385380000003,1.1061577860000005,69.0,-0.030441448000000086,-0.06210458780000001,0.04561127399999999,1
73.82169448770583,18.50259313825518,1.2599999400000002,147.79422,18-46-11,0.628889798,0.07258454600000026,2.4101510200000003,68.0,0.033455055999999914,-0.08482877520000001,0.05330817579999999,1
73.82167747244239,18.50265059620142,1.2380000000000002,153.66713,18-46-11,0.44546947799999986,0.2622198200000002,2.1224549400000003,67.0,0.04457280199999991,-0.0751771452,0.05062036779999999,1
73.82167747244239,18.50265059620142,1.2380000000000002,153.66713,18-46-11,0.6123623439999999,0.41272736600000026,2.3727704800000007,66.0,0.045428012999999906,-0.041335213200000005,0.04292346679999999,1
73.82167747244239,18.50265059620142,1.2380000000000002,153.66713,18-46-11,0.3010710699999999,-0.20257873399999976,2.1984911880000007,66.0,0.11054624859999991,-0.009325876600000007,0.011524991599999982,1
73.82167747244239,18.50265059620142,1.2380000000000002,153.66713,18-46-12,-0.1278310600000001,-0.30526237159999975,2.2259859220000004,67.0,0.1227635521999999,0.016819156599999996,-0.007656178400000019,1
73.82167747244239,18.50265059620142,1.2380000000000002,153.66713,18-46-12,-0.23999620000000013,0.15738734840000027,0.6619348020000004,67.0,-0.021034123800000092,0.058724514599999986,-0.018040887400000018,1
73.82167747244239,18.50265059620142,1.2380000000000002,153.66713,18-46-12,-0.19839642000000018,-0.19653569159999976,0.5621224420000005,67.0,-0.029341891800000092,0.09073385059999999,0.005416338599999984,1
73.82167747244239,18.50265059620142,1.2380000000000002,153.66713,18-46-12,-0.22923400000000008,-0.5046621375999998,0.4111935220000006,68.0,-0.0502334808000001,0.0780278532,0.004316781199999985,1
73.82167747244239,18.50265059620142,1.2380000000000002,153.66713,18-46-12,0.2604414799999999,-0.6014253575999997,1.0511278740000005,69.0,-0.0855414904000001,0.0772948148,0.015312356399999985,1
73.82167747244239,18.50265059620142,1.2380000000000002,153.66713,18-46-12,0.594251836,-0.4744556399999997,0.7547337800000006,70.0,-0.0830980296000001,0.07301875779999999,0.016900605199999984,1
73.82167747244239,18.50265059620142,1.2380000000000002,153.66713,18-46-12,0.3643437559999999,-0.3202865599999997,2.7903739000000005,70.0,-0.16825264160000009,0.06031275979999999,0.03376048519999998,1
73.82165987044573,18.50270977243781,1.3219999400000002,159.78122,18-46-12,0.0021543059999998724,0.14004460000000027,1.2942156200000006,70.0,-0.1903659624000001,0.025982135799999993,0.05660684639999999,1
73.82165987044573,18.50270977243781,1.3219999400000002,159.78122,18-46-12,0.14975974599999983,0.01512050000000027,0.9461474190000005,70.0,-0.14113022440000006,0.03587815259999999,0.03718133079999999,1
73.82165987044573,18.50270977243781,1.3219999400000002,159.78122,18-46-13,-0.008762434000000163,0.11410768800000026,0.06735835900000064,70.0,-0.07894414440000008,0.020606521399999998,0.043656500799999984,1
73.82165987044573,18.50270977243781,1.3219999400000002,159.78122,18-46-13,0.35822476999999986,-0.009797873999999738,0.8002970390000007,70.0,-0.06599380080000009,-0.004194607600000004,0.06295984399999999,1
73.82165987044573,18.50270977243781,1.3219999400000002,159.78122,18-46-13,0.5299146699999999,-0.16213627999999974,-1.1758580409999992,71.0,0.0669304391999999,-0.010669780200000003,0.06491461259999999,1
73.82165987044573,18.50270977243781,1.3219999400000002,159.78122,18-46-13,0.6153030919999998,-0.45554772399999977,-0.06743078899999934,70.0,0.07694862999999989,-0.016534086600000004,0.04952080739999999,1
73.82165987044573,18.50270977243781,1.3219999400000002,159.78122,18-46-13,0.3672798999999999,0.00510120200000026,-0.2112677079999993,70.0,0.0492153467999999,-0.012991068000000005,0.06259332439999998,1
73.82165987044573,18.50270977243781,1.3219999400000002,159.78122,18-46-13,0.1096465539999999,0.24454708000000025,-0.1104538079999993,71.0,0.0340658887999999,0.009000080999999993,0.04341215679999998,1
73.82165987044573,18.50270977243781,1.3219999400000002,159.78122,18-46-13,-0.2196405980000002,0.26091613600000024,-0.34764438799999925,71.0,0.008653894799999898,0.021095212999999995,0.017389295799999982,1
73.82165987044573,18.50270977243781,1.3219999400000002,159.78122,18-46-13,-0.034307350000000195,0.12320098800000027,0.07504035200000067,71.0,0.0195273275999999,0.006312273799999993,0.021909698399999983,1
73.82163531146944,18.502772049978372,1.338,166.68724,18-46-13,-0.08757404600000021,0.15000762900000025,0.08430782600000068,71.0,0.014273885199999897,-0.010547607800000008,0.022520563799999983,1
73.82163531146944,18.502772049978372,1.338,166.68724,18-46-13,-0.24160168000000018,0.06882305100000027,0.10054186600000067,71.0,0.009020443399999899,-0.01763364460000001,0.02826269679999998,1
73.82163531146944,18.502772049978372,1.338,166.68724,18-46-14,-0.2193432680000002,-0.057487678999999736,0.34411260600000065,71.0,-0.006617706600000101,-0.04023565860000001,0.05074253719999998,1
73.82163531146944,18.502772049978372,1.338,166.68724,18-46-14,-0.21589801800000022,-0.22090702099999976,0.2863937550000007,71.0,0.006699154999999899,-0.0398691392,0.03767002119999999,1
73.82163531146944,18.502772049978372,1.338,166.68724,18-46-14,-0.0391596960000002,-0.16023101859999975,0.4709973150000007,71.0,-0.006006842000000101,-0.034004845400000004,0.022154045199999983,1
73.82163531146944,18.502772049978372,1.338,166.68724,18-46-14,-0.021279377600000187,-0.17978420359999975,0.6028055890000006,71.0,-0.0118711480000001,-0.023131443200000004,0.010547605599999982,1
73.82163531146944,18.502772049978372,1.338,166.68724,18-46-14,0.027192126399999815,-0.3430244455999997,0.9447308690000007,72.0,0.0013235419999998994,-0.020565809200000004,-0.007167487200000017,1
73.82163531146944,18.502772049978372,1.338,166.68724,18-46-14,0.12433694439999983,-0.35035476759999973,1.0427363690000007,72.0,0.006088290999999899,-0.017267136800000006,-0.03331251880000002,1
73.82163531146944,18.502772049978372,1.338,166.68724,18-46-14,-0.038089867600000195,-0.1679355615999997,1.2102334800000007,71.0,-0.0034412066000001013,-0.0051720046000000046,-0.044185919800000015,1
73.82163531146944,18.502772049978372,1.338,166.68724,18-46-14,-0.09564151360000019,-0.4154899499999997,0.6052670200000008,71.0,-0.0017308424000001005,-0.005294164800000005,-0.05334889780000002,1
73.82161376997828,18.502836422994733,1.37599992,173.60649,18-46-14,-0.25031318800000013,-0.5672464219999998,0.2206008800000007,71.0,-0.003196919000000101,-0.006271549000000004,-0.04821762960000002,1
73.82161376997828,18.502836422994733,1.37599992,173.60649,18-46-14,-0.27575175880000014,-0.5866062019999998,-0.2691577199999993,72.0,-0.0101607830000001,-0.012868893600000004,-0.041986802800000014,1
73.82161376997828,18.502836422994733,1.37599992,173.60649,18-46-15,-0.13548894280000018,-0.6791936759999998,-0.36564591999999924,73.0,-0.005151688400000101,-0.001873319400000004,-0.04491895600000002,1
73.82161376997828,18.502836422994733,1.37599992,173.60649,18-46-15,0.07501078519999985,-0.8332076939999997,-0.3940017999999993,74.0,-0.009794264400000101,-0.029362256000000003,-0.022561288000000016,1
73.82161376997828,18.502836422994733,1.37599992,173.60649,18-46-15,-0.015776254800000156,-0.5522491459999997,0.10987910000000074,76.0,-0.011138109600000102,-0.04011348420000001,-0.008022696000000018,1
73.82161376997828,18.502836422994733,1.37599992,173.60649,18-46-15,-0.13482811480000015,-0.27883434599999973,0.2946599258000008,77.0,0.006943501399999899,-0.0526973082,-0.007167485000000017,1
73.82161376997828,18.502836422994733,1.37599992,173.60649,18-46-15,-0.06582992200000015,-0.2436990719999997,0.5100985758000008,76.0,0.0212377479999999,-0.0596611722,-0.004724025000000018,1
73.82161376997828,18.502836422994733,1.37599992,173.60649,18-46-15,0.07989047799999986,-0.14822005799999974,0.44236721580000077,76.0,0.0246585933999999,-0.075910188,-0.015719599000000018,1
73.82161376997828,18.502836422994733,1.37599992,173.60649,18-46-15,0.40575796399999986,0.43650208200000035,0.6730175558000008,75.0,0.054713165399999895,-0.110729505,-0.018773925800000018,1
73.82161376997828,18.502836422994733,1.37599992,173.60649,18-46-15,0.3313120959999999,0.7363538740000004,0.1530991158000007,76.0,0.0967406945999999,-0.1068199678,-0.07277441180000002,1
73.82159482687712,18.502899915911257,1.40599994,180.32298,18-46-15,0.7844849359999999,-0.21195964599999967,-0.06251744999999924,76.0,0.11433361459999988,-0.0834849158,-0.11089240280000001,1
73.82159482687712,18.502899915911257,1.40599994,180.32298,18-46-15,1.4064562159999998,-0.29057254599999965,-0.03667409799999923,76.0,0.1624697989999999,-0.10388781439999999,-0.11260282480000001,1
73.82159482687712,18.502899915911257,1.40599994,180.32298,18-46-16,1.9349168559999999,-0.6079553599999997,0.42572460200000073,76.0,0.1556281085999999,-0.11805988919999999,-0.0958651174,1
73.82159482687712,18.502899915911257,1.40599994,180.32298,18-46-16,1.3002218959999998,-1.7724230799999998,0.8244830020000009,80.0,0.1513520497999999,-0.08666141720000001,-0.05444845060000002,1
73.82159482687712,18.502899915911257,1.40599994,180.32298,18-46-16,1.5283023399999998,-2.289453026,2.0775438420000008,78.0,0.05422447779999988,-0.10791952599999999,0.07603236139999998,1
73.82159482687712,18.502899915911257,1.40599994,180.32298,18-46-16,1.7191857999999995,-1.3723978999999997,1.5280607820000012,76.0,0.00926479479999989,-0.15141312999999998,0.15275703339999996,1
73.82159482687712,18.502899915911257,1.40599994,180.32298,18-46-16,1.17562712,-1.2185772939999997,2.845078420000001,75.0,-0.16678657120000012,-0.148603148,0.1913637154,1
73.82159482687712,18.502899915911257,1.40599994,180.32298,18-46-16,0.18924115999999983,-0.7428906479999997,2.103345480000001,77.0,-0.17509433860000012,-0.12551244059999997,0.20516927,1
73.82159482687712,18.502899915911257,1.40599994,180.32298,18-46-16,0.49552709199999984,0.4314777320000003,1.535189380000001,77.0,-0.2220087878000001,-0.1140281742,0.20248146399999997,1
73.82159482687712,18.502899915911257,1.40599994,180.32298,18-46-16,1.4348827319999997,1.0464233380000003,-0.44429155999999903,76.0,-0.16861916760000012,-0.1426166662,0.197228024,1
73.82157856598496,18.50295787677169,1.284,186.42625,18-46-16,1.772543512,1.6406864120000002,1.137533120000001,75.0,-0.1305011766000001,-0.1005891388,0.17609208799999998,1
73.82157856598496,18.50295787677169,1.284,186.42625,18-46-16,0.43186285199999974,1.2535304060000003,-0.40533405999999894,75.0,0.0803695053999999,-0.0577064008,0.131865446,1
73.82157856598496,18.50295787677169,1.284,186.42625,18-46-17,1.2634798319999998,1.088528348,-1.123381419999999,75.0,0.0809803705999999,-0.014945830199999992,0.07969755399999998,1
73.82157856598496,18.50295787677169,1.284,186.42625,18-46-17,1.7309514999999998,0.33169584800000024,-0.7633792799999991,76.0,0.0736499865999999,0.009733126600000004,0.06442591999999998,1
73.82157856598496,18.50295787677169,1.284,186.42625,18-46-17,1.00678022,-0.15472383199999973,-0.042623639999999165,76.0,0.0868446759999999,0.0776613386,0.0027285319999999806,1
73.82157856598496,18.50295787677169,1.284,186.42625,18-46-17,-0.19023694000000022,-0.8830063759999996,-1.6430289799999993,76.0,0.0012013679999999028,0.08499172160000001,-0.022683461200000022,1
73.82157856598496,18.50295787677169,1.284,186.42625,18-46-17,0.9899588569999997,-0.2427009559999997,-2.010202939999999,74.0,-0.11009827800000012,0.09012298960000001,-0.01791871240000002,1
73.82157856598496,18.50295787677169,1.284,186.42625,18-46-17,0.2966243809999998,0.08885555600000031,-1.8881487999999993,74.0,-0.12011646640000011,0.08022696880000002,0.012258030399999979,1
73.82157856598496,18.50295787677169,1.284,186.42625,18-46-17,-0.36584649900000016,0.6264316560000003,-2.741404559999999,75.0,-0.08028805260000012,0.09305513960000002,-0.037099881600000016,1
73.82157856598496,18.50295787677169,1.284,186.42625,18-46-17,-0.7106507574,0.8534528760000002,-1.8900191199999994,76.0,-0.0030746842000001218,0.0973311976,-0.06996443280000002,1
73.82156079635024,18.503011520951983,1.298,192.28012,18-46-17,0.07381080259999995,1.0908159280000003,-1.9962410399999997,77.0,0.04457280579999988,0.10099638920000001,-0.08853473680000001,1
73.82156079635024,18.503011520951983,1.298,192.28012,18-46-17,0.15021430159999993,1.0491184280000003,-1.3920238279999995,77.0,0.07462737439999989,0.0950099092,-0.09672033160000001,1
73.82156079635024,18.503011520951983,1.298,192.28012,18-46-18,0.22771492359999992,0.7546857858000003,-0.4326661959999994,77.0,0.09771807839999988,0.068131839,-0.09439904360000002,1
73.82156079635024,18.503011520951983,1.298,192.28012,18-46-18,0.3435332215999999,0.38559914580000043,0.024570344000000598,77.0,0.11738793939999988,0.02439388500000001,-0.05420411160000001,1
