Longitude,Latitude,Speed,Distance,Time,Acc X,Acc Y,Acc Z,Heading,gyro_x,gyro_y,gyro_z,label
73.82266059,18.50162704,0,0,18-45-12,0.046402127,-0.13717842,-0.28293374,352,-0.03630576,-0.008226318,-0.0234165,0
73.82266059,18.50162704,0,0,18-45-12,-0.13697833,0.365242,0.108888835,352,0.035776343,-0.00944805,0.009570222,0
73.82266059,18.50162704,0,0,18-45-13,-0.045354933,-0.10334015,-0.5349848,352,-0.011871147,-0.027774006,0.00346157,0
73.82266059,18.50162704,0,0,18-45-13,0.24208939,0.07276058,-0.3503963,352,-0.0179798,0.002769256,-0.005090542,0
73.82266059,18.50162704,0,0,18-45-13,-0.23023361,0.011764526,-0.4940847,352,0.011341732,0.003380121,0.006515894,0
73.82266059,18.50162704,0,0,18-45-13,0.08243817,0.000148,-0.028262824,352,-0.02836451,0.003380121,-0.000204,0
73.82266059,18.50162704,0,0,18-45-13,-0.056366593,0.10904598,-0.4919038,352,0.042495858,-0.000285,0.01628974,0
73.82266059,18.50162704,0,0,18-45-13,0.18880838,-0.054860115,-0.5369395,352,0.000346,0.003380121,-0.000814,0
73.82266059,18.50162704,0,0,18-45-13,-0.25155643,0.38398552,0.5004583,352,-0.002708169,0.000326,-0.014864387,0
73.82266059,18.50162704,0,0,18-45-13,0.07966614,0.3661871,-0.26299977,352,-0.02469932,0.007656178,0.002239838,0
73.82266042,18.50162721,0,0.025645396,18-45-13,-0.35258022,0.084308624,0.09591478,352,0.003400484,-0.007004588,-0.000204,0
73.82266042,18.50162721,0,0.025645396,18-45-13,0.3017167,0.2908764,-0.081077844,352,0.00523308,-0.021665353,0.010181088,0
73.82266042,18.50162721,0,0.025645396,18-45-14,-0.19919643,0.018981934,-0.48365974,352,0.025391633,0.019873483,-0.014864387,0
73.82266042,18.50162721,0,0.025645396,18-45-14,0.2756819,0.27888393,-0.1361936,352,-0.00637336,-0.014334971,-0.008755736,0
73.82266042,18.50162721,0,0.025645396,18-45-14,-0.32408932,0.08474922,0.31507075,352,-0.021034125,0.014375695,-0.02097304,0
73.82266042,18.50162721,0,0.025645396,18-45-14,0.16223773,0.25232315,-0.09880817,352,0.013785193,-0.018000163,0.01628974,0
73.82266042,18.50162721,0,0.025645396,18-45-14,0.26187864,0.070575714,0.5269635,352,-0.02164499,0.0125431,-0.003257949,0
73.82266042,18.50162721,0,0.025645396,18-45-14,0.038296193,0.028366089,-0.60834295,352,-0.001486438,-0.019832758,0.00712676,0
73.82266042,18.50162721,0,0.025645396,18-45-14,-0.02491793,0.0952034,0.09804478,352,-0.02836451,0.017430022,-0.022194771,0
73.82266042,18.50162721,0,0.025645396,18-45-14,-0.16710815,0.07774353,-0.13311142,352,0.019893846,-0.029606603,0.017511472,0
73.82266042,18.50162721,0,0.025645396,18-45-14,0.13045359,0.09000492,-0.013187975,352,-0.030197106,0.003990986,0.004072435,0
73.82266042,18.50162721,0,0.025645396,18-45-14,-0.10519692,0.41327858,0.56875736,352,0.0400524,-0.000285,0.018122334,0
73.82266042,18.50162721,0,0.025645396,18-45-15,0.082155734,0.29388523,-0.08085868,352,-0.003929899,0.004601852,-0.001425352,0
73.82266042,18.50162721,0,0.025645396,18-45-15,-0.12362328,-0.10850334,-0.53340137,352,-0.010038552,0.002769256,-0.013642658,0
73.82266042,18.50162721,0,0.025645396,18-45-15,0.1650956,0.088819504,-0.55122054,352,-0.008205955,-0.025330545,-0.001425352,0
73.82266042,18.50162721,0,0.025645396,18-45-15,0.30374783,0.1982956,-0.052173853,352,-0.02836451,0.014986561,-0.014253523,0
73.82266042,18.50162721,0,0.025645396,18-45-15,-0.10489917,0.5086937,0.7172341,352,-0.002708169,-0.027774006,0.017511472,0
73.82266042,18.50162721,0,0.025645396,18-45-15,-0.025553346,-0.062433243,-0.35601008,352,-0.03325143,-0.004561127,0.002850704,0
73.82266042,18.50162721,0,0.025645396,18-45-15,-0.20906462,0.30960464,0.8464087,352,0.0400524,-0.002728531,0.010181088,0
73.82266042,18.50162721,0,0.025645396,18-45-15,0.2961942,0.4080057,0.37433657,352,-0.010649418,-0.003339397,-0.005090542,0
73.82266042,18.50162721,0,0.025645396,18-45-15,-0.07172933,0.43070984,0.6535668,352,-0.002097303,0.000326,-0.014864387,0
73.82266042,18.50162721,0,0.025645396,18-45-15,0.22053897,0.53248024,-0.018536925,352,-0.013092878,0.014375695,-0.003868815,0
73.82266042,18.50162721,0,0.025645396,18-45-16,-0.074118525,0.41080284,0.4842717,352,0.023559038,-0.014334971,0.00712676,0
73.82266042,18.50162721,0,0.025645396,18-45-16,-0.32017875,-0.000876,-0.3847604,352,0.004011349,-0.029606603,0.017511472,0
73.82266042,18.50162721,0,0.025645396,18-45-16,0.3366438,0.27698612,0.6558815,352,-0.027753644,-0.008837184,0.00346157,0
73.82266042,18.50162721,0,0.025645396,18-45-16,0.20544767,-0.1219759,-0.7402514,352,0.009509136,0.002158391,0.004683301,0
73.82266042,18.50162721,0,0.025645396,18-45-16,0.18581736,-0.09549713,-0.6879712,352,-0.019201532,0.019262617,-0.026470827,0
73.82266042,18.50162721,0,0.025645396,18-45-16,-0.21420127,0.056567192,-0.27275956,352,0.005843945,0.010099638,-0.01975131,0
73.82266042,18.50162721,0,0.025645396,18-45-16,-0.047365814,-0.060162544,-0.5503361,352,-0.013092878,0.001547525,-0.006923139,0
73.82266042,18.50162721,0,0.025645396,18-45-16,-0.47196773,-0.023509026,-0.08763388,352,0.000957,-0.018000163,0.013235413,0
73.82266042,18.50162721,0,0.025645396,18-45-16,0.23521182,0.38953876,0.29022154,352,-0.006984226,-0.028384872,0.020565797,0
73.82266042,18.50162721,0,0.025645396,18-45-16,0.25702196,0.16950798,0.4510206,352,-0.018590666,0.022316944,-0.022805637,0
73.82266042,18.50162721,0,0.025645396,18-45-17,0.26217118,0.40703487,-0.021541387,352,-0.015536339,-0.007004588,-0.006923139,0
73.82266042,18.50162721,0,0.025645396,18-45-17,0.09250185,0.25293922,0.2950994,352,-0.000876,-0.01189151,0.004072435,0
73.82266042,18.50162721,0,0.025645396,18-45-17,-0.29339424,0.14870548,-0.18823418,352,0.003400484,-0.028995737,0.012013681,0
73.82266042,18.50162721,0,0.025645396,18-45-17,-0.04689601,-0.07190609,-0.4310136,352,0.012563462,0.021706078,-0.01975131,0
73.82266042,18.50162721,0,0.025645396,18-45-17,0.19607788,0.15944195,-0.38593933,352,0.017450385,-0.010058914,0.013235413,0
73.82266042,18.50162721,0,0.025645396,18-45-17,0.2934661,0.31112385,0.38200375,352,-0.027753644,0.002769256,-0.012420926,0
73.82266042,18.50162721,0,0.025645396,18-45-17,-0.18936004,0.3885603,0.4455676,352,0.01806125,0.000937,0.008348491,0
73.82266042,18.50162721,0,0.025645396,18-45-17,-0.10397357,-0.062888145,-0.6625304,352,-0.034473162,-0.003950262,0.006515894,0
73.82266042,18.50162721,0,0.025645396,18-45-17,0.24163264,0.24310112,0.324336,352,0.1121345,0.06263405,-0.061290145,0
73.82266042,18.50162721,0,0.025645396,18-45-17,0.8521958,0.12617207,-0.26309037,352,-0.007595091,-0.06381506,0.023009256,0
73.82266042,18.50162721,0,0.025645396,18-45-18,0.66018033,-0.19104195,0.56379825,352,0.061432682,-0.040602177,0.013235413,0
73.82266042,18.50162721,0,0.025645396,18-45-18,0.22298253,-0.45361614,0.009920508,352,-0.006984226,-0.000285,-0.020362174,0
73.82266042,18.50162721,0,0.025645396,18-45-18,-0.497176,-0.083444595,0.21705459,352,-0.035694893,0.05835799,-0.039909862,0
73.82266042,18.50162721,0,0.025645396,18-45-18,-0.4962612,0.012722015,-0.48503333,352,0.017450385,0.021095213,0.006515894,0
73.82266042,18.50162721,0,0.025645396,18-45-18,-0.068500996,-0.1338749,-0.03384322,352,-0.053409982,-0.013724105,0.013846278,0
73.82266042,18.50162721,0,0.025645396,18-45-18,0.15402079,0.20352077,1.4167442,352,0.02172644,-0.084584475,-0.009977466,0
73.82266042,18.50162721,0,0.025645396,18-45-18,0.7506855,-0.2720747,-0.9040707,352,0.027224228,-0.078475825,0.09142617,0
73.82266042,18.50162721,0,0.025645396,18-45-18,0.38148782,-0.1994791,-0.05475101,352,0.06693047,-0.016778432,-0.003868815,0
73.82266042,18.50162721,0,0.025645396,18-45-18,0.83853817,0.55496883,0.16803893,352,-0.08334238,-0.047932558,0.005905032,0
73.82266042,18.50162721,0,0.025645396,18-45-18,-0.05677235,0.6164551,-0.060435474,352,-0.047301333,0.003380121,0.010181088,0
73.82266042,18.50162721,0,0.025645396,18-45-19,0.07665464,0.51379204,-0.06914896,352,0.04371759,0.008267043,0.002850704,0
73.82266042,18.50162721,0,0.025645396,18-45-19,0.20020434,0.49835205,0.32719898,352,0.022337306,0.021095213,-0.02097304,0
73.82266042,18.50162721,0,0.025645396,18-45-19,-0.09600085,0.32653713,-0.5297674,352,0.04371759,-0.005171993,0.00712676,0
73.82266042,18.50162721,0,0.025645396,18-45-19,0.083458036,-0.12972641,0.17200375,352,0.0400524,0.0125431,-0.006312273,0
73.82266042,18.50162721,0,0.025645396,18-45-19,0.25539726,0.39161873,0.28465867,352,-0.038749218,0.006434447,0.004072435,0
73.82266042,18.50162721,0,0.025645396,18-45-19,-0.3101559,0.11116505,0.8433026,352,0.019893846,-0.018000163,0.019954931,0
73.82266042,18.50162721,0,0.025645396,18-45-19,0.031125009,0.38199234,0.5060697,352,0.03638721,-0.016778432,0.005294167,0
73.82266042,18.50162721,0,0.025645396,18-45-19,0.23976603,0.010660172,-0.4034651,352,0.015617789,-0.010058914,0.010791954,0
73.82266042,18.50162721,0,0.025645396,18-45-19,0.35993046,0.21360111,0.6396657,352,-0.02836451,-0.007004588,0.004683301,0
73.82266042,18.50162721,0,0.025645396,18-45-19,0.21689585,0.3726921,0.057063952,352,0.00523308,-0.015556702,0.015678875,0
73.82266042,18.50162721,0,0.025645396,18-45-20,-0.2553907,-0.017567635,-0.24847618,352,-0.019201532,0.022316944,-0.027081693,0
73.82266042,18.50162721,0,0.025645396,18-45-20,0.99516094,0.02801323,0.85310614,352,-0.06623815,-0.025330545,0.04255695,0
73.82266042,18.50162721,0,0.025645396,18-45-20,0.09919959,-0.24751759,-0.07923661,352,-0.11022045,-0.03632612,0.029728778,0
73.82266042,18.50162721,0,0.025645396,18-45-20,-0.023065895,0.016040802,-0.1491168,352,-0.078455456,-0.032050062,0.017511472,0
73.82266042,18.50162721,0,0.025645396,18-45-20,-0.029303998,0.024905205,-0.8350772,352,-0.03997095,-0.005171993,0.023009256,0
73.82266042,18.50162721,0,0.025645396,18-45-20,-0.45841098,0.21872616,-0.6872218,352,-0.008816821,0.010099638,-0.01730785,0
73.82266042,18.50162721,0,0.025645396,18-45-20,-0.21089928,0.40770817,-0.73746794,352,-0.019812394,-0.005171993,-0.005090542,0
73.82266042,18.50162721,0,0.025645396,18-45-20,-0.22850494,0.65848255,0.68240714,352,-0.018590666,-0.013724105,0.002850704,0
73.82266042,18.50162721,0,0.025645396,18-45-20,-0.10522199,0.39763355,-0.26109073,352,0.026613362,0.000937,0.004072435,0
73.82266042,18.50162721,0,0.025645396,18-45-20,-0.18852432,0.09023857,-0.5349568,352,-0.000265,0.008267043,-0.024027366,0
73.82266042,18.50162721,0,0.025645396,18-45-21,0.23198602,0.71213436,0.029490888,352,0.049826242,0.002769256,0.007737625,0
73.82266042,18.50162721,0,0.025645396,18-45-21,0.2641237,0.46511364,0.26995444,352,-0.045468736,-0.002117666,0.010791954,0
73.82266042,18.50162721,0,0.025645396,18-45-21,0.2199265,0.43661213,0.031523257,352,-0.008816821,-0.000285,-0.00814487,0
73.82266042,18.50162721,0,0.025645396,18-45-21,-0.32431102,0.13946438,0.047087327,352,0.025391633,0.000326,0.001628973,0
73.82266042,18.50162721,0,0.025645396,18-45-21,-0.030770063,0.37284946,0.72371876,352,0.015006924,-0.016167566,0.004683301,0
73.82266042,18.50162721,0,0.025645396,18-45-21,0.16897783,0.2336607,0.10777825,352,-0.002097303,0.004601852,-0.003257949,0
73.82266042,18.50162721,0,0.025645396,18-45-21,-0.13566181,-0.45367718,-0.087289006,352,-0.015536339,0.06996443,-0.060068414,0
73.82266042,18.50162721,0,0.025645396,18-45-21,-0.5190523,-0.05308914,-0.3850322,352,0.002178754,0.017430022,-0.02097304,0
73.82266042,18.50162721,0,0.025645396,18-45-21,0.12000233,0.0383749,-0.11134207,352,0.046771914,-0.006393723,0.002850704,0
73.82266042,18.50162721,0,0.025645396,18-45-21,0.37422463,0.1118536,0.42311904,352,-0.02592105,-0.030828334,0.019344065,0
73.82266042,18.50162721,0,0.025645396,18-45-22,-0.09103897,0.18900394,0.6423873,352,0.01806125,-0.035715256,0.01628974,0
73.82266042,18.50162721,0,0.025645396,18-45-22,-0.082398504,-0.26002407,-0.41443068,352,-0.028975375,0.002769256,-0.000814,0
73.82266042,18.50162721,0,0.025645396,18-45-22,0.21049967,0.1790371,-0.21662208,352,-0.040581815,0.014986561,-0.020362174,0
73.82266042,18.50162721,0,0.025645396,18-45-22,2.6869535,-0.6823921,1.0060387,352,-0.022866722,0.07118616,0.17511469,0
73.82266042,18.50162721,0,0.025645396,18-45-22,1.4372487,-0.9176645,0.837555,352,-0.046690468,-0.017389297,-0.017918713,0
73.82266042,18.50162721,0,0.025645396,18-45-22,-0.2569529,0.4628029,0.48850134,352,-0.065627284,-0.06931284,0.08959357,0
73.82266042,18.50162721,0,0.025645396,18-45-22,0.27618015,0.41086292,-0.4351602,352,-0.027753644,-0.055262942,0.046833,0
73.82266042,18.50162721,0,0.025645396,18-45-22,-0.43071288,0.41470432,-1.065304,352,0.002178754,0.019873483,-0.007534005,0
73.82266042,18.50162721,0,0.025645396,18-45-22,-0.14641105,0.54687595,-1.1249621,352,-0.017368935,-0.025330545,-0.000204,0
73.82266042,18.50162721,0,0.025645396,18-45-22,0.1905654,0.49166775,-0.31658643,352,0.014396058,0.031479925,-0.039909862,0
73.82266042,18.50162721,0,0.025645396,18-45-23,-0.3076248,0.23784542,-0.8455255,352,0.015006924,-0.02349795,0.005294167,0
73.82266042,18.50162721,0,0.025645396,18-45-23,-0.002236188,-0.037659645,-0.8949417,352,0.03333288,0.02292781,-0.012420926,0
73.82266042,18.50162721,0,0.025645396,18-45-23,0.094668806,0.35736084,1.0480933,352,0.09075422,0.008267043,-0.000204,0
73.82266042,18.50162721,0,0.025645396,18-45-23,0.5131656,0.2576542,0.15773383,352,0.030889422,0.015597426,-0.008755736,0
73.82266042,18.50162721,0,0.025645396,18-45-23,-0.034479678,0.24066257,0.65709317,352,0.03699807,0.008267043,-0.00814487,0
73.82266042,18.50162721,0,0.025645396,18-45-23,0.19256568,0.2660036,0.09315525,352,-0.012482013,-0.025941411,0.000407,0
73.82266042,18.50162721,0,0.025645396,18-45-23,0.25359628,0.1786604,-0.05247718,352,0.044328455,-0.01311324,0.018122334,0
73.82265313,18.501627,0.112,0.78778964,18-45-23,0.17507339,0.08167839,0.2501847,352,-0.003319033,0.008267043,-0.002036218,0
73.82265313,18.501627,0.112,0.78778964,18-45-23,-0.20836781,-0.110860825,-0.24666646,352,-0.011260281,-0.007004588,-0.011199197,0
73.82265313,18.501627,0.112,0.78778964,18-45-23,0.13887778,0.06393623,-0.44992697,352,-0.02836451,-0.027774006,0.001018107,0
73.82265313,18.501627,0.112,0.78778964,18-45-24,0.17902708,0.2866726,0.4208172,352,-0.025310185,0.022316944,-0.022194771,0
73.82265313,18.501627,0.112,0.78778964,18-45-24,-0.25581193,0.34508324,-0.059337735,352,-0.000265,-0.034493525,0.016900606,0
73.82265313,18.501627,0.112,0.78778964,18-45-24,0.30429137,0.23855972,0.7041145,351,0.010730867,0.018040888,-0.016696984,0
73.82265313,18.501627,0.112,0.78778964,18-45-24,0.002552122,0.45019245,0.28767598,350,0.04127413,0.002769256,0.012624547,0
73.82265313,18.501627,0.112,0.78778964,18-45-24,0.17090684,-0.05319214,-0.6644389,350,-0.00637336,0.018040888,-0.028914288,0
73.82265313,18.501627,0.112,0.78778964,18-45-24,-0.2187975,-0.20895958,-0.529654,350,0.027835093,0.01376483,-0.002036218,0
73.82265313,18.501627,0.112,0.78778964,18-45-24,0.0786784,0.34960365,-0.07200256,350,-0.0179798,0.010710504,0.000407,0
73.82263913,18.5016244,0.356,2.2847304,18-45-24,-0.37240762,-0.09991169,-0.28951195,350,-0.013703742,-0.008226318,-0.002036218,0
73.82263913,18.5016244,0.356,2.2847304,18-45-24,0.22603595,-0.20965672,-0.9122032,350,0.018672116,0.007045313,0.004072435,0
73.82263913,18.5016244,0.356,2.2847304,18-45-24,0.30752277,0.22572803,0.52806294,351,0.007676541,0.015597426,-0.022805637,0
73.82263913,18.5016244,0.356,2.2847304,18-45-25,-0.08279523,0.19590664,-0.37831894,351,-0.00637336,-0.013724105,0.008959357,0
73.82263913,18.5016244,0.356,2.2847304,18-45-25,0.30843753,-0.003602982,-0.3531506,351,-0.004540765,0.003380121,-0.016086118,0
73.82263913,18.5016244,0.356,2.2847304,18-45-25,-0.23870295,0.19325161,0.37065703,350,-0.007595091,0.003990986,0.01628974,0
73.82263913,18.5016244,0.356,2.2847304,18-45-25,0.18943095,0.20858288,0.3696546,350,-0.010649418,0.011932234,-0.005701408,0
73.82263913,18.5016244,0.356,2.2847304,18-45-25,-0.17200652,0.30761242,0.114511356,351,0.044328455,-0.007615454,0.014457144,0
73.82263913,18.5016244,0.356,2.2847304,18-45-25,0.18034929,0.5370865,0.37733752,351,0.061432682,0.025982136,-0.01730785,0
73.82263913,18.5016244,0.356,2.2847304,18-45-25,-0.30731502,0.2678938,0.59055126,352,0.03638721,-0.012502376,0.025452718,0
73.8226165,18.50162327,0.51,4.6745257,18-45-25,-0.4135578,0.74351215,-1.1366554,353,0.104193255,0.03331252,-0.05029457,0
73.8226165,18.50162327,0.51,4.6745257,18-45-25,1.155187,-1.2701511,-0.77242935,353,-0.058296908,-0.07053457,0.069435015,0
73.8226165,18.50162327,0.51,4.6745257,18-45-25,0.035522312,0.23853683,-0.20318621,354,-0.057075176,0.12372057,-0.12604186,0
73.8226165,18.50162327,0.51,4.6745257,18-45-26,1.7717408,-1.1612349,-0.883582,355,0.027224228,-0.02349795,-0.003868815,0
73.8226165,18.50162327,0.51,4.6745257,18-45-26,-1.8764416,0.9207382,-0.61749476,356,0.030889422,-0.044878233,0.010791954,0
73.8226165,18.50162327,0.51,4.6745257,18-45-26,0.8666458,-1.0466394,-2.1309454,357,0.0980846,0.06324492,-0.08205956,0
73.8226165,18.50162327,0.51,4.6745257,18-45-26,0.12823284,-0.15108585,-2.0418396,357,-0.014925473,-0.07114544,0.08165232,0
73.8226165,18.50162327,0.51,4.6745257,18-45-26,0.009335756,0.66491985,0.33379355,357,0.043106724,-0.008226318,-0.011810061,0
73.8226165,18.50162327,0.51,4.6745257,18-45-26,0.95309913,0.15045357,0.07271916,357,-0.013092878,-0.0577064,0.038891755,0
73.8226165,18.50162327,0.51,4.6745257,18-45-26,-0.6886053,0.27525902,0.47014502,357,0.04493932,0.019262617,-0.051516302,0
73.82258641,18.50162344,0.746,7.8436546,18-45-26,0.17839095,0.000511,-0.4000433,357,0.049215376,-0.043045636,-0.006312273,0
73.82258641,18.50162344,0.746,7.8436546,18-45-26,0.002502501,0.038229942,-0.14854103,357,0.057156626,-0.025330545,-0.019140445,0
73.82258641,18.50162344,0.746,7.8436546,18-45-26,0.19378236,-0.034724236,-0.3258564,357,0.022337306,-0.038158715,-0.008755736,0
73.82258641,18.50162344,0.746,7.8436546,18-45-27,-0.10702458,-0.020804405,0.521224,357,-0.03997095,-0.03754785,0.013235413,0
73.82258641,18.50162344,0.746,7.8436546,18-45-27,-0.36480665,0.16652012,-1.1970019,357,0.065097876,-0.03388266,-0.01975131,0
73.82258641,18.50162344,0.746,7.8436546,18-45-27,0.42879868,-0.339406,-0.25689387,356,-0.043025274,-0.04671083,0.027285315,0
73.82258641,18.50162344,0.746,7.8436546,18-45-27,0.5137588,0.32425976,-0.36895895,356,-0.07662286,-0.05343035,-0.016086118,0
73.82258641,18.50162344,0.746,7.8436546,18-45-27,0.74408257,0.44553566,0.066419184,356,-0.06929248,-0.09374745,0.05110906,0
73.82258641,18.50162344,0.746,7.8436546,18-45-27,0.24795261,0.5314245,-1.1241379,356,0.114577964,-0.066869386,-0.016086118,0
73.82258641,18.50162344,0.746,7.8436546,18-45-27,0.08670053,0.29996395,0.52374744,356,0.02966769,-0.077254094,0.002850704,0
73.82255305,18.5016239,0.718,11.361694,18-45-27,0.05935499,0.9283714,-1.4017262,356,-0.0179798,-0.07603236,0.014457144,0
73.82255305,18.5016239,0.718,11.361694,18-45-27,0.601338,0.65025234,-0.8960042,355,0.13351478,-0.080308415,0.011402819,0
73.82255305,18.5016239,0.718,11.361694,18-45-27,0.010955215,0.69736576,-0.0927887,355,0.08342383,-0.05037602,-0.039298996,0
73.82255305,18.5016239,0.718,11.361694,18-45-28,0.16570094,0.3484316,-0.62518716,354,0.01928298,-0.05709554,-0.034412075,0
73.82255305,18.5016239,0.718,11.361694,18-45-28,0.16751695,0.56324196,0.40453124,356,0.12129748,-0.10107783,-0.009366602,0
73.82255305,18.5016239,0.718,11.361694,18-45-28,-0.9212137,0.2918558,-0.27595276,355,0.13717997,-0.03999131,-0.10466158,0
73.82255305,18.5016239,0.718,11.361694,18-45-28,0.16986904,-0.13806915,0.037291884,356,0.057156626,-0.056484673,0.001018107,0
73.82255305,18.5016239,0.718,11.361694,18-45-28,0.13191241,-0.2491169,0.13783848,356,-0.000876,-0.044878233,-0.03380121,0
73.82255305,18.5016239,0.718,11.361694,18-45-28,-0.14253986,-0.059679985,0.6219477,355,0.015617789,-0.06381506,0.013235413,0
73.82255305,18.5016239,0.718,11.361694,18-45-28,-0.25630683,-0.30889225,-1.2227801,351,0.013785193,-0.044878233,0.013846278,0
73.82251994,18.50161564,0.73199996,14.906174,18-45-28,1.6062768,-0.03693199,2.2335489,352,-0.22750658,-0.09863438,0.08043059,0
73.82251994,18.50161564,0.73199996,14.906174,18-45-28,-2.049965,-0.5750761,-1.9077339,352,-0.26232588,-0.14689273,0.121358566,1
73.82251994,18.50161564,0.73199996,14.906174,18-45-28,-0.19369423,0.66847515,-1.8006642,353,0.10480412,0.068131834,-0.16513723,1
73.82251994,18.50161564,0.73199996,14.906174,18-45-29,0.3743561,1.6133137,-2.5071158,354,-0.2042937,-0.22019655,0.2209296,1
73.82251994,18.50161564,0.73199996,14.906174,18-45-29,-2.1224718,-0.18945217,-6.0990243,354,-0.46757662,-0.027774006,-0.051516302,1
73.82251994,18.50161564,0.73199996,14.906174,18-45-29,-1.4193065,3.5790758,-5.1423798,352,-0.5243871,0.000937,0.087150104,1
73.82251994,18.50161564,0.73199996,14.906174,18-45-29,-2.291411,2.539795,-3.370381,353,0.6551937,0.120055385,-0.09427687,1
73.82251994,18.50161564,0.73199996,14.906174,18-45-29,0.05437374,2.0105581,-0.14475334,353,0.5507357,0.0669101,-0.1413135,1
73.82251994,18.50161564,0.73199996,14.906174,18-45-29,-1.9965062,0.82431984,-5.3761787,353,0.38396955,-0.059538998,-0.20606521,1
73.82251994,18.50161564,0.73199996,14.906174,18-45-29,0.11707476,-1.5123501,8.410082,355,0.95451766,0.051638477,-0.1498656,1
73.82248188,18.50160713,0.82,18.999422,18-45-29,0.5163642,-4.791968,6.8298974,355,0.3491502,0.10111856,-0.22072598,1
73.82248188,18.50160713,0.82,18.999422,18-45-29,-0.8706962,-4.544372,8.089055,354,-0.32646674,0.07118616,0.03522656,1
73.82248188,18.50160713,0.82,18.999422,18-45-29,-1.781294,-2.2723303,6.0554495,354,-0.6318994,0.031479925,0.06576982,1
73.82248188,18.50160713,0.82,18.999422,18-45-30,-2.0485656,-0.07038593,2.139461,355,-0.45658106,-0.04671083,0.16778433,1
73.82248188,18.50160713,0.82,18.999422,18-45-30,-1.2102484,0.047377586,1.4541788,355,-0.40038145,0.006434447,0.086539246,1
73.82248188,18.50160713,0.82,18.999422,18-45-30,-1.3458135,1.4091282,-0.914291,355,-0.20001765,0.06446664,-0.043575056,1
73.82248188,18.50160713,0.82,18.999422,18-45-30,-1.3468707,1.7174492,-1.3523942,354,-0.028975375,0.09317731,-0.12237667,1
73.82248188,18.50160713,0.82,18.999422,18-45-30,-0.6794827,1.5364723,-0.9366736,353,0.010730867,0.066299245,-0.093666,1
73.82248188,18.50160713,0.82,18.999422,18-45-30,-0.6640378,1.244627,-0.9750042,354,0.11518883,0.0669101,-0.08022697,1
73.82248188,18.50160713,0.82,18.999422,18-45-30,0.38948637,0.6208401,0.24225864,354,0.14145604,0.03697771,-0.062511876,1
73.82243084,18.50160374,1.146,24.398438,18-45-30,0.793174,-0.4619465,0.46428397,354,0.053491432,0.014375695,-0.030746885,1
73.82243084,18.50160374,1.146,24.398438,18-45-30,0.9293397,-0.23779011,1.2727795,353,0.04860451,0.007656178,-0.025859963,1
73.82243084,18.50160374,1.146,24.398438,18-45-30,0.28369614,-0.2868185,0.47709554,351,0.012563462,0.000937,-0.000814,1
73.82243084,18.50160374,1.146,24.398438,18-45-31,0.2847131,-0.3095932,1.1216643,352,-0.038749218,-0.010058914,0.00346157,1
73.82243084,18.50160374,1.146,24.398438,18-45-31,0.45962372,-1.1938496,1.9354146,352,-0.16275486,-0.016167566,0.019344065,1
73.82243084,18.50160374,1.146,24.398438,18-45-31,0.18080513,0.1531496,-2.0726638,353,-0.3374623,-0.022276219,0.07004588,1
73.82243084,18.50160374,1.146,24.398438,18-45-31,-0.017935902,1.8272114,-5.102045,352,-0.5879171,-0.026552275,0.08470664,1
73.82243084,18.50160374,1.146,24.398438,18-45-31,0.3381281,-0.92197704,0.7964578,351,-0.36006433,-0.07481063,0.07248934,1
73.82243084,18.50160374,1.146,24.398438,18-45-31,-0.29183438,2.8181791,-6.4391537,352,-0.08700757,0.041253768,-0.03624467,1
73.82243084,18.50160374,1.146,24.398438,18-45-31,-0.83071554,3.0431967,-4.8519735,353,0.039441533,0.05835799,-0.04662938,1
73.8223808,18.50159397,0.97199994,29.771858,18-45-31,-0.4596022,2.0568333,-1.7073002,354,0.322883,0.085236065,-0.08816822,1
73.8223808,18.50159397,0.97199994,29.771858,18-45-31,-0.61355937,2.1732397,-3.2597458,353,0.3210504,0.047362417,-0.09488773,1
73.8223808,18.50159397,0.97199994,29.771858,18-45-31,0.7830882,0.90466213,-0.829533,353,0.22880976,0.085236065,-0.115046285,1
73.8223808,18.50159397,0.97199994,29.771858,18-45-32,0.94900477,-0.7036991,0.2851976,353,0.18666007,-0.005782858,-0.057624955,1
73.8223808,18.50159397,0.97199994,29.771858,18-45-32,0.7957696,-0.8857908,0.80262864,354,0.003400484,-0.039380446,0.005294167,1
73.8223808,18.50159397,0.97199994,29.771858,18-45-32,0.68837976,-1.0520163,1.4294488,354,-0.025310185,-0.06625852,0.005294167,1
73.8223808,18.50159397,0.97199994,29.771858,18-45-32,-0.3158478,0.26328087,-0.6034405,354,-0.16947438,-0.02349795,0.07187848,1
73.8223808,18.50159397,0.97199994,29.771858,18-45-32,0.1356066,-0.369462,1.2540327,354,-0.16336572,-0.05404121,0.033393964,1
73.8223808,18.50159397,0.97199994,29.771858,18-45-32,-0.59159476,1.0399389,-1.4174639,355,-0.13465506,-0.029606603,0.014457144,1
73.8223808,18.50159397,0.97199994,29.771858,18-45-32,-0.43331945,0.069374084,-0.29899463,356,-0.074179396,-0.014945837,-0.013031792,1
73.82233042,18.50159226,1.154,35.077675,18-45-32,0.23276216,1.9235992,-2.5428655,356,0.13717997,-0.02349795,-0.019140445,1
73.82233042,18.50159226,1.154,35.077675,18-45-32,-1.0409409,0.30192757,-0.71491826,357,0.117632285,0.05102761,-0.059457548,1
73.82233042,18.50159226,1.154,35.077675,18-45-32,0.9144094,0.54854107,-1.1923814,358,0.094419405,-0.062593326,0.012624547,1
73.82233042,18.50159226,1.154,35.077675,18-45-33,0.39158276,-0.22759819,-1.4570285,357,-0.02958624,-0.020443624,-0.02097304,1
73.82233042,18.50159226,1.154,35.077675,18-45-33,0.5102954,-0.10966873,-0.1501472,357,-0.1322116,-0.007004588,0.02239839,1
73.82233042,18.50159226,1.154,35.077675,18-45-33,-0.012170792,-0.46080208,0.8175528,357,-0.09189449,0.021095213,-0.020362174,1
73.82233042,18.50159226,1.154,35.077675,18-45-33,-0.97329867,-0.06516552,-0.08741164,357,-0.09250536,0.015597426,-0.01730785,1
73.82233042,18.50159226,1.154,35.077675,18-45-33,-0.26538858,1.4089718,0.23761201,357,0.009509136,0.036366843,-0.02097304,1
73.82233042,18.50159226,1.154,35.077675,18-45-33,-0.77617764,-0.4218998,0.22340202,357,-0.006984226,-0.016167566,0.0327831,1
73.82233042,18.50159226,1.154,35.077675,18-45-33,-0.42648914,1.049284,-1.6589177,357,0.058378354,0.022316944,-0.04907284,1
73.82227854,18.5015835,1.146,40.631626,18-45-33,-0.007946285,1.1186256,-2.0849187,358,0.022948172,-0.047321696,0.012624547,1
73.82227854,18.5015835,1.146,40.631626,18-45-33,0.96844184,1.2772074,-1.6713204,358,0.10969104,0.021706078,-0.11687888,1
73.82227854,18.5015835,1.146,40.631626,18-45-34,-0.6503712,-0.96358204,-0.5470114,358,0.012563462,0.13593787,-0.0954986,1
73.82227854,18.5015835,1.146,40.631626,18-45-34,0.40339938,1.094182,2.2118988,358,0.05165884,0.14815518,-0.12237667,1
73.82227854,18.5015835,1.146,40.631626,18-45-34,-0.43815905,0.5123949,0.08247471,358,0.068152204,0.2165721,-0.08633562,1
73.82227854,18.5015835,1.146,40.631626,18-45-34,0.08423889,-0.24206829,0.61329556,357,-0.039360084,0.095620774,-0.0533489,1
73.82227854,18.5015835,1.146,40.631626,18-45-34,-0.62591845,0.6367264,-0.9361751,356,-0.09250536,0.115779325,0.027285315,1
73.82227854,18.5015835,1.146,40.631626,18-45-34,-0.3345596,0.602952,-0.12745214,355,-0.043025274,0.09378818,0.109752126,1
73.82227854,18.5015835,1.146,40.631626,18-45-34,-0.261406,0.32347298,0.33065605,356,-0.20551543,0.13044009,-0.013642658,1
73.82227854,18.5015835,1.146,40.631626,18-45-34,-0.85551476,1.8332615,-2.469263,357,0.14573209,0.0687427,-0.00447968,1
73.82222456,18.50157474,1.158,46.407585,18-45-34,-0.28958303,1.1977606,0.9826059,356,-0.053409982,0.10050769,-0.034412075,1
73.82222456,18.50157474,1.158,46.407585,18-45-34,0.81935567,-0.22285652,0.58794373,356,0.065097876,0.18175277,-0.074118316,1
73.82222456,18.50157474,1.158,46.407585,18-45-35,-0.19648498,0.27446175,0.7178005,356,-0.002097303,0.17930931,-0.020362174,1
73.82222456,18.50157474,1.158,46.407585,18-45-35,-0.17689517,-0.09498501,-0.9571762,355,-0.000876,0.16648114,-0.044185918,1
73.82222456,18.50157474,1.158,46.407585,18-45-35,0.7800729,-0.47483444,-0.15245849,355,-0.005762494,0.09378818,-0.024027366,1
73.82222456,18.50157474,1.158,46.407585,18-45-35,-0.3441397,-0.2574234,-0.56557643,355,0.061432682,0.01376483,0.018122334,1
73.82222456,18.50157474,1.158,46.407585,18-45-35,-0.46598193,0.74330044,0.982545,355,-0.06440555,0.07607309,-0.010588331,1
73.82222456,18.50157474,1.158,46.407585,18-45-35,-0.35823995,0.7688122,-0.6330226,354,-0.006984226,0.04980588,-0.042353325,1
73.82222456,18.50157474,1.158,46.407585,18-45-35,-0.7747475,0.042336464,0.26946518,352,0.072428256,0.003380121,0.086539246,1
73.82222456,18.50157474,1.158,46.407585,18-45-35,-0.14982037,-1.1280441,1.1975257,356,0.080980375,0.03331252,0.020565797,1
73.82217469,18.50156459,0.95599994,51.775093,18-45-35,1.5543634,-0.3979025,0.20462826,0,0.035165478,-0.016778432,0.053552523,1
73.82217469,18.50156459,0.95599994,51.775093,18-45-35,2.8119705,-1.5007181,-1.2411206,359,-0.21712187,-0.15055794,0.20138192,1
73.82217469,18.50156459,0.95599994,51.775093,18-45-36,1.6968918,-0.3370819,-0.13582945,358,-0.2867605,-0.07786496,0.14823663,1
73.82217469,18.50156459,0.95599994,51.775093,18-45-36,-0.39150435,0.72734547,0.6583102,357,-0.24949771,-0.03510439,0.08287405,1
73.82217469,18.50156459,0.95599994,51.775093,18-45-36,1.3381073,0.2317915,0.9673042,357,-0.06379469,0.000937,-0.030136019,1
73.82217469,18.50156459,0.95599994,51.775093,18-45-36,1.5958699,0.003913879,-0.87601244,357,-0.13587679,-0.09924524,0.08776098,1
73.82217469,18.50156459,0.95599994,51.775093,18-45-36,2.90717,1.09968,2.9882722,358,-0.017368935,-0.08091928,0.11463905,1
73.82217469,18.50156459,0.95599994,51.775093,18-45-36,0.2839681,0.42364788,-1.7391608,358,0.0400524,-0.06625852,0.14029539,1
73.82217469,18.50156459,0.95599994,51.775093,18-45-36,-0.666749,0.09620857,-1.1397322,357,0.08525643,0.0125431,0.055385113,1
73.82217469,18.50156459,0.95599994,51.775093,18-45-36,-0.5785349,0.12611294,-1.89576,357,0.10846931,0.12372057,-0.14742213,1
73.82213253,18.50156103,0.87,56.240513,18-45-36,0.19522977,0.3960247,0.4663304,357,0.17138843,0.021706078,-0.15475252,1
73.82213253,18.50156103,0.87,56.240513,18-45-36,-0.018489689,0.32680798,2.8948681,355,0.002178754,0.014375695,-0.05029457,1
73.82213253,18.50156103,0.87,56.240513,18-45-37,0.8426039,-0.52107906,1.6283307,356,-0.038749218,-0.003950262,0.016900606,1
73.82213253,18.50156103,0.87,56.240513,18-45-37,2.1784487,-2.0245438,2.6829805,357,-0.21406753,-0.078475825,0.096923955,1
73.82213253,18.50156103,0.87,56.240513,18-45-37,1.596317,-0.78232574,2.2039328,359,-0.049133927,-0.09374745,0.054774247,1
73.82213253,18.50156103,0.87,56.240513,18-45-37,-0.35097954,-0.044672012,-0.2273562,358,-0.02592105,-0.019832758,0.037059158,1
73.82213253,18.50156103,0.87,56.240513,18-45-37,-0.52841705,0.66270256,0.16398823,358,-0.038749218,0.024149539,0.010791954,1
73.82213253,18.50156103,0.87,56.240513,18-45-37,-0.31637794,0.53934383,-0.34949493,357,0.07181739,0.04614069,-0.036855537,1
73.82213253,18.50156103,0.87,56.240513,18-45-37,0.17630069,0.31418133,-1.2868459,356,0.17444275,-0.007004588,-0.009977466,1
73.82213253,18.50156103,0.87,56.240513,18-45-37,-2.0166292,1.0967903,0.5243401,357,0.08953249,-0.02471968,0.015678875,1
73.82209296,18.50156263,0.658,60.36434,18-45-37,-0.26043528,0.58801174,-0.24916649,356,0.1121345,0.02903646,0.060272038,1
73.82209296,18.50156263,0.658,60.36434,18-45-37,0.09810259,0.05910778,-0.43620527,356,0.106025845,0.018651752,0.035837427,1
73.82209296,18.50156263,0.658,60.36434,18-45-38,2.0704188,-0.5904989,1.0437257,355,0.10358239,0.031479925,-0.01730785,1
73.82209296,18.50156263,0.658,60.36434,18-45-38,0.58071506,-0.8126488,1.0068016,355,0.04860451,-0.032050062,0.1048652,1
73.82209296,18.50156263,0.658,60.36434,18-45-38,0.7885174,-0.85786915,0.7460569,356,-0.15970053,-0.027774006,0.13540846,1
73.82209296,18.50156263,0.658,60.36434,18-45-38,2.29599,-0.9314461,2.6947682,355,-0.14748323,-0.056484673,0.08470664,1
73.82209296,18.50156263,0.658,60.36434,18-45-38,-0.53105193,0.62607765,0.8465823,353,0.004622215,-0.025330545,-0.036855537,1
73.82209296,18.50156263,0.658,60.36434,18-45-38,-1.4230112,0.2828331,0.99064016,353,-0.042414412,-0.000285,0.023009256,1
73.82209296,18.50156263,0.658,60.36434,18-45-38,-0.06258285,-0.06832123,1.5456214,354,-0.047301333,-0.02105449,0.03950262,1
73.82209296,18.50156263,0.658,60.36434,18-45-38,-0.8186498,1.0279121,1.700428,354,0.016228653,0.045529824,-0.06800966,1
73.82206446,18.50156397,0.52999998,63.337223,18-45-38,-2.4393446,0.9395304,0.4188076,354,0.08220211,0.003380121,-0.10343985,1
73.82206446,18.50156397,0.52999998,63.337223,18-45-38,-2.8472185,0.85271263,-0.3347358,352,0.06998479,0.033923384,-0.07350745,1
73.82206446,18.50156397,0.52999998,63.337223,18-45-39,-1.1703937,0.6800957,0.94754565,352,0.1665015,0.02292781,-0.06495534,1
73.82206446,18.50156397,0.52999998,63.337223,18-45-39,-2.4808426,-0.22515583,5.4371066,352,-0.062572956,0.035755977,-0.13215052,1
73.82206446,18.50156397,0.52999998,63.337223,18-45-39,-3.6770275,1.3274183,6.142731,351,0.13962343,0.092566445,-0.16208291,1
73.82206446,18.50156397,0.52999998,63.337223,18-45-39,-5.5230317,0.40227318,7.5902123,352,0.36258924,0.22756767,-0.26898432,1
73.82206446,18.50156397,0.52999998,63.337223,18-45-39,-4.4419985,-1.1690207,2.118069,353,0.11274537,0.0546928,-0.024027366,1
73.82206446,18.50156397,0.52999998,63.337223,18-45-39,-6.051202,-3.5864415,3.3069723,353,-0.32524502,0.26544133,-0.04907284,1
73.82206446,18.50156397,0.52999998,63.337223,18-45-39,-3.210821,-1.8374171,8.913069,352,-0.29348,0.13715962,0.09509135,1
73.8220425,18.50156468,0.406,65.634315,18-45-39,-1.6666651,1.1472902,0.88032037,353,-0.5219436,0.09500991,-0.21583906,1
73.8220425,18.50156468,0.406,65.634315,18-45-39,-3.9395912,1.4509802,-1.8552556,353,-0.25621724,0.1286075,-0.15597427,1
73.8220425,18.50156468,0.406,65.634315,18-45-39,-0.94664574,1.3203602,-2.3382735,354,0.13717997,0.102951154,-0.026470827,1
73.8220425,18.50156468,0.406,65.634315,18-45-40,-0.86616504,1.69975,0.8997692,354,0.20681861,0.16770288,-0.06495534,1
73.8220425,18.50156468,0.406,65.634315,18-45-40,1.41919,-0.96975136,1.4099334,354,0.3686979,0.11822279,-0.08389216,1
73.8220425,18.50156468,0.406,65.634315,18-45-40,1.384794,-0.59221363,1.4541051,354,0.003400484,0.021706078,-0.11810061,1
73.8220425,18.50156468,0.406,65.634315,18-45-40,-1.8142525,-0.044104576,0.8198095,352,0.03211115,0.018651752,-0.077172644,1
73.8220425,18.50156468,0.406,65.634315,18-45-40,-0.2374936,-2.6725073,7.2009664,352,0.05532403,-0.005171993,0.053552523,1
73.8220425,18.50156468,0.406,65.634315,18-45-40,0.23946077,-1.766159,3.3258572,351,-0.39182934,-0.050986886,0.1592322,1
73.8220425,18.50156468,0.406,65.634315,18-45-40,0.4621628,-0.7827635,0.30466098,351,-0.43397903,0.072407894,-0.04174246,1
73.8220425,18.50156468,0.406,65.634315,18-45-40,-1.270773,1.1871023,-1.167891,350,-0.4187074,0.054081935,-0.030136019,1
73.82202616,18.50156744,0.29399998,67.32033,18-45-40,-0.25844666,1.4053535,-1.4107125,350,-0.36311865,0.003380121,0.06882415,1
73.82202616,18.50156744,0.29399998,67.32033,18-45-40,0.1790095,0.79978275,-2.059677,351,0.037608936,0.14143565,-0.10221812,1
73.82202616,18.50156744,0.29399998,67.32033,18-45-41,0.7507665,0.4886589,-1.7916894,351,0.035776343,0.062023185,-0.11260283,1
73.82202616,18.50156744,0.29399998,67.32033,18-45-41,-1.010367,0.3217888,-0.069266975,350,-0.100446604,-0.011280645,-0.00447968,1
73.82202616,18.50156744,0.29399998,67.32033,18-45-41,-0.25106016,-0.68499756,1.1533991,351,0.06754134,0.027814731,-0.02097304,1
73.82202616,18.50156744,0.29399998,67.32033,18-45-41,0.33928347,-1.4430542,1.5315216,353,0.23797274,0.056525398,-0.001425352,1
73.82202616,18.50156744,0.29399998,67.32033,18-45-41,0.341745,-1.7211189,3.1227193,353,0.22147939,0.03514511,-0.009366602,1
73.82202616,18.50156744,0.29399998,67.32033,18-45-41,0.828518,-1.1857624,3.1435857,353,-0.077233724,-0.00944805,0.019344065,1
73.82202616,18.50156744,0.29399998,67.32033,18-45-41,-0.19680151,-0.5900469,1.5072551,352,-0.054631714,-0.00944805,0.053552523,1
73.82202616,18.50156744,0.29399998,67.32033,18-45-41,-2.1340425,0.11685276,-1.8356133,353,-0.26293677,-0.010058914,0.10791952,1
73.8220125,18.5015705,0.262,68.724655,18-45-41,0.45284247,0.20768261,0.08123392,353,-0.24338907,0.05102761,0.056606844,1
73.8220125,18.5015705,0.262,68.724655,18-45-41,-0.46927714,0.7036114,-1.9884083,352,-0.16764179,0.112725,0.030339643,1
73.8220125,18.5015705,0.262,68.724655,18-45-42,0.072066724,0.89598465,-0.9552187,351,-0.11022045,0.15548557,-0.06923139,1
73.8220125,18.5015705,0.262,68.724655,18-45-42,0.6821643,1.6859188,-2.0596774,352,0.06693047,0.13960308,-0.07595091,1
73.8220125,18.5015705,0.262,68.724655,18-45-42,0.6163855,-0.8718128,-1.6500024,357,0.01928298,0.16220507,-0.05457063,1
73.8220125,18.5015705,0.262,68.724655,18-45-42,-0.51474285,-0.069909096,-3.874567,2,-0.1022792,0.08706866,0.07920886,1
73.8220125,18.5015705,0.262,68.724655,18-45-42,0.84537446,-0.005209923,7.1290255,5,0.10113893,0.0687427,0.023620121,1
73.8220125,18.5015705,0.262,68.724655,18-45-42,-1.296769,-0.5661745,3.5370262,7,0.17444275,0.06507751,0.036448292,1
73.8220125,18.5015705,0.262,68.724655,18-45-42,1.1176174,-1.1610565,8.84906,9,0.3051679,-0.014945837,0.13785192,1
73.8220125,18.5015705,0.262,68.724655,18-45-42,1.1667008,-1.690486,4.3943567,12,0.038830668,-0.24218771,0.2563598,1
73.82200177,18.5015726,0.36,69.8326,18-45-42,-5.863544,-0.91916084,2.595376,16,0.47621018,-0.20064887,0.27224228,1
73.82200177,18.5015726,0.36,69.8326,18-45-42,-3.3391902,-2.1142511,1.023558,20,0.66557837,0.03697771,-0.08511389,1
73.82200177,18.5015726,0.36,69.8326,18-45-43,-4.3093,-0.13062763,4.52025,26,0.055934895,0.13166183,-0.32335132,1
73.82200177,18.5015726,0.36,69.8326,18-45-43,2.6797247,-0.38799095,1.71176,29,0.10663671,0.24528277,-0.09794206,1
73.82200177,18.5015726,0.36,69.8326,18-45-43,0.56586516,-1.0104485,-1.1531086,31,0.01928298,0.0864578,-0.046018515,1
73.82200177,18.5015726,0.36,69.8326,18-45-43,0.42353424,-0.010323525,-0.11540216,32,-0.17008524,0.045529824,-0.013031792,1
73.82200177,18.5015726,0.36,69.8326,18-45-43,-0.95377064,0.042482376,-0.13648117,32,-0.07967719,0.06385578,-0.007534005,1
73.82200177,18.5015726,0.36,69.8326,18-45-43,0.026553452,0.53251934,0.5729905,33,0.03333288,0.11028154,-0.022805637,1
73.82200177,18.5015726,0.36,69.8326,18-45-43,0.40681365,0.30699158,0.99704766,34,0.084034696,0.10050769,-0.026470827,1
73.82199355,18.50157574,0.256,70.668045,18-45-43,0.3073259,1.5990772,0.033353403,35,0.16283631,0.003380121,-0.037466403,1
73.82199355,18.50157574,0.256,70.668045,18-45-43,-1.102217,0.77385616,0.44719374,36,0.17932968,-0.008837184,0.06638069,1
73.82199355,18.50157574,0.256,70.668045,18-45-43,-0.37795052,1.0132856,-1.3141565,36,0.11824315,0.04980588,-0.05457063,1
73.82199355,18.50157574,0.256,70.668045,18-45-44,-0.0993015,0.42900372,-0.39692894,37,0.1738319,0.22817853,-0.275093,1
73.82199355,18.50157574,0.256,70.668045,18-45-44,-0.74096465,-0.12897491,-2.315836,38,0.10480412,0.0546928,-0.039298996,1
73.82199355,18.50157574,0.256,70.668045,18-45-44,2.1633263,-1.5942287,0.018086862,38,-0.22384138,-0.008226318,0.048665598,1
73.82199355,18.50157574,0.256,70.668045,18-45-44,3.8684402,-1.4788189,0.84249187,39,-0.3166929,-0.1792686,0.19405153,1
73.82199355,18.50157574,0.256,70.668045,18-45-44,0.7385585,-0.6575451,3.8176417,39,-0.30325386,-0.16094264,0.18672115,1
73.82199355,18.50157574,0.256,70.668045,18-45-44,-2.4739084,1.534049,0.2920365,40,-0.32463416,-0.058317266,0.17267123,1
73.82199355,18.50157574,0.256,70.668045,18-45-44,-2.3137903,0.8158207,1.1671494,41,-0.3411275,-0.016778432,0.08287405,1
73.82199355,18.50157574,0.256,70.668045,18-45-44,1.4605238,1.6154041,0.12566169,42,0.13962343,0.07546222,-0.09855293,1
73.82198391,18.50158081,0.148,71.640434,18-45-44,2.9044793,1.6491604,2.4764276,43,0.045550186,-0.09496918,0.0187332,1
73.82198391,18.50158081,0.148,71.640434,18-45-44,0.8943827,-0.64507294,1.4708792,44,0.3039462,-0.08397361,-0.09488773,1
73.82198391,18.50158081,0.148,71.640434,18-45-45,-2.1584363,-0.27413464,2.6534119,44,0.16039285,0.104172885,-0.10588331,1
73.82198391,18.50158081,0.148,71.640434,18-45-45,1.4957265,0.8567009,1.5786932,44,0.28745282,0.004601852,-0.21461731,1
73.82198391,18.50158081,0.148,71.640434,18-45-45,-0.28137714,0.86402225,-2.521205,43,-0.17313957,-0.035715256,-0.051516302,1
73.82198391,18.50158081,0.148,71.640434,18-45-45,0.39958847,-1.0840607,1.8575591,44,-0.035084028,-0.13284284,0.059661172,1
73.82198391,18.50158081,0.148,71.640434,18-45-45,0.149297,-0.73887634,3.0549617,44,-0.101668335,-0.13895148,0.06393723,1
73.82198391,18.50158081,0.148,71.640434,18-45-45,-0.43313277,-0.5543041,1.3042852,44,-0.22750658,-0.065647654,-0.000814,1
73.82198391,18.50158081,0.148,71.640434,18-45-45,-0.15448153,1.245431,-2.076458,44,-0.1566462,-0.14078408,0.021176662,1
73.82197729,18.50158576,0.104,72.30128,18-45-45,0.6807499,0.49960995,-0.39818507,44,-0.104722664,-0.15055794,0.010791954,1
73.82197729,18.50158576,0.104,72.30128,18-45-45,1.1389788,0.089245796,1.1344073,45,-0.054631714,-0.22264001,0.0327831,1
73.82197729,18.50158576,0.104,72.30128,18-45-45,0.026399016,0.59254265,-1.9919021,45,0.012563462,-0.22202915,0.037670024,1
73.82197729,18.50158576,0.104,72.30128,18-45-46,-0.008748651,0.30977726,-1.5972025,45,0.06448701,-0.1792686,-0.031968616,1
73.82197729,18.50158576,0.104,72.30128,18-45-46,0.2558701,1.2490921,-1.5273474,45,-0.013092878,-0.14689273,-0.04540765,1
73.82197729,18.50158576,0.104,72.30128,18-45-46,0.12020147,0.38757133,-1.3526958,46,0.057156626,-0.16399696,-0.016696984,1
73.82197729,18.50158576,0.104,72.30128,18-45-46,0.43891943,-0.36624622,-0.6244547,47,0.06570874,-0.13406456,-0.027081693,1
73.82197729,18.50158576,0.104,72.30128,18-45-46,1.396455,-0.14458847,1.4419922,48,0.015617789,-0.100466974,-0.07350745,1
73.82197729,18.50158576,0.104,72.30128,18-45-46,0.37975085,0.008791924,3.108515,47,0.07059566,-0.1420058,-0.028303422,1
73.82197729,18.50158576,0.104,72.30128,18-45-46,-0.20756721,0.5769701,0.9867799,47,-0.07234681,-0.18537724,0.0645481,1
73.82197168,18.50159255,0.164,72.8499,18-45-46,-0.4282441,0.21074963,-0.7671119,48,-0.11449651,-0.20431405,0.065158956,1
73.82197168,18.50159255,0.164,72.8499,18-45-46,-2.3282027,1.8679771,-3.201431,49,-0.018590666,-0.2507398,0.19588411,1
73.82197168,18.50159255,0.164,72.8499,18-45-46,-1.405688,3.539915,-1.6869555,48,0.14634295,-0.1438384,-0.003257949,1
73.82197168,18.50159255,0.164,72.8499,18-45-47,-0.38265932,1.8819141,-1.0245248,47,0.27218118,-0.15666658,-0.003868815,1
73.82197168,18.50159255,0.164,72.8499,18-45-47,-1.5039309,0.5904913,-4.8446836,47,0.41023675,-0.11268427,-0.033190347,1
73.82197168,18.50159255,0.164,72.8499,18-45-47,0.8631331,1.4600744,-2.6145482,47,0.32776994,-0.088860534,-0.15780686,1
73.82197168,18.50159255,0.164,72.8499,18-45-47,1.4996576,-0.8252678,1.2101415,48,0.40657154,-0.10596476,-0.13520485,1
73.82197168,18.50159255,0.164,72.8499,18-45-47,0.09783137,-0.8474331,-0.37974516,49,0.43161702,-0.16949475,-0.03868813,1
73.82197168,18.50159255,0.164,72.8499,18-45-47,-0.3476771,-0.7030182,1.7686405,52,0.087089024,-0.24279857,-0.00447968,1
73.82197168,18.50159255,0.164,72.8499,18-45-47,1.2117679,-1.1073351,2.1035254,53,0.236751,-0.19515109,-0.006312273,1
73.82196514,18.5016068,0.42,73.47437,18-45-47,-0.52410805,-1.3791618,1.8101392,55,0.12862785,-0.22752693,0.030339643,1
73.82196514,18.5016068,0.42,73.47437,18-45-47,0.024122,-0.33256912,1.7046721,54,0.071206525,-0.2654006,0.04255695,1
73.82196514,18.5016068,0.42,73.47437,18-45-47,0.26789021,0.27801323,0.44229898,53,0.10908017,-0.2580702,0.079819724,1
73.82196514,18.5016068,0.42,73.47437,18-45-48,-0.5004326,-1.2320347,0.1049667,52,0.12435181,-0.16582954,-0.06800966,1
73.82196514,18.5016068,0.42,73.47437,18-45-48,0.51077175,1.3139353,-0.21485794,50,0.20987295,-0.15239051,-0.07228572,1
73.82196514,18.5016068,0.42,73.47437,18-45-48,-0.4398893,0.6195564,0.30312955,51,0.09747373,-0.08275188,-0.09427687,1
73.82196514,18.5016068,0.42,73.47437,18-45-48,1.823768,-0.9062042,-1.0429244,52,0.1524516,-0.07114544,-0.07839437,1
73.82196514,18.5016068,0.42,73.47437,18-45-48,1.9115292,-1.3004074,0.5596224,52,0.13351478,-0.06442592,-0.057624955,1
73.82196514,18.5016068,0.42,73.47437,18-45-48,0.91316307,-1.0734482,2.8610623,53,0.059600085,-0.12184725,0.021176662,1
73.82196514,18.5016068,0.42,73.47437,18-45-48,0.18045884,-0.66657734,1.9098476,52,0.10358239,0.02903646,-0.11993321,1
73.82196514,18.5016068,0.42,73.47437,18-45-48,-0.000402,-0.9420805,1.2852538,52,0.29905927,-0.021665353,-0.08083783,1
73.82195659,18.50162666,0.41,74.343056,18-45-48,-0.16439605,-1.8714929,1.3788135,52,0.14634295,-0.011280645,-0.022194771,1
73.82195659,18.50162666,0.41,74.343056,18-45-48,-0.24570027,-0.46898365,-0.8008692,52,-0.031418838,-0.047321696,0.09631308,1
73.82195659,18.50162666,0.41,74.343056,18-45-49,-0.10448855,-1.443943,-1.9588937,52,-0.001486438,0.032701652,0.009570222,1
73.82195659,18.50162666,0.41,74.343056,18-45-49,-0.65905225,-0.66574,-1.264492,52,0.007065675,-0.010058914,-0.06312274,1
73.82195659,18.50162666,0.41,74.343056,18-45-49,0.89876926,-0.20486736,3.6037416,51,-0.16825265,-0.000285,0.0926479,1
73.82195659,18.50162666,0.41,74.343056,18-45-49,-0.318673,-2.0427012,-1.0190959,52,-0.12182689,-0.074199766,-0.020362174,1
73.82195659,18.50162666,0.41,74.343056,18-45-49,-2.963995,2.05616,-0.54473066,53,0.21842505,0.046751555,-0.17185676,1
73.82195659,18.50162666,0.41,74.343056,18-45-49,-0.37653542,0.14277363,-0.2337836,57,0.17810795,0.03331252,-0.052738033,1
73.82195659,18.50162666,0.41,74.343056,18-45-49,0.88444567,-1.3375101,-0.5500597,58,-0.005151629,-0.010058914,0.1048652,1
73.82195659,18.50162666,0.41,74.343056,18-45-49,0.6109747,0.6114063,3.4314475,58,-0.411377,-0.088860534,0.10425433,1
73.8219498,18.50164925,0.602,75.10026,18-45-49,-0.68895805,1.002224,-2.1354818,58,-0.046079602,-0.04243477,-0.034412075,1
73.8219498,18.50164925,0.602,75.10026,18-45-49,0.12871158,2.0205688,0.31967622,56,-0.02042326,-0.062593326,-0.06617707,1
73.8219498,18.50164925,0.602,75.10026,18-45-50,-0.198012,1.3441658,1.9383528,55,0.003400484,0.06263405,-0.09794206,1
73.8219498,18.50164925,0.602,75.10026,18-45-50,-1.7337582,1.673603,-0.7920686,57,0.27523553,0.03331252,-0.16269377,1
73.8219498,18.50164925,0.602,75.10026,18-45-50,-0.79840595,0.49444962,-0.37386262,59,0.10236066,0.013153965,-0.051516302,1
73.8219498,18.50164925,0.602,75.10026,18-45-50,-0.07095802,0.65292645,-0.53059506,60,0.058378354,-0.062593326,0.013235413,1
73.8219498,18.50164925,0.602,75.10026,18-45-50,1.8448155,-0.087779045,0.37344575,67,-0.035084028,-0.06320419,0.053552523,1
73.8219498,18.50164925,0.602,75.10026,18-45-50,0.4015708,-0.40556717,0.41563365,72,-0.1761939,-0.12612331,0.10730866,1
73.8219498,18.50164925,0.602,75.10026,18-45-50,-0.7613313,1.191391,-0.9123644,77,0.080980375,-0.016167566,0.002850704,1
73.82194092,18.50167964,0.714,76.2209,18-45-50,-0.16683775,0.58201313,1.405321,79,-0.09189449,0.047973283,-0.048461977,1
73.82194092,18.50167964,0.714,76.2209,18-45-50,0.9541551,-0.32225418,0.69468737,77,0.1121345,0.010099638,-0.05823582,1
73.82194092,18.50167964,0.714,76.2209,18-45-50,-0.24217767,1.0133467,1.5819659,73,0.14145604,0.05102761,-0.11015937,1
73.82194092,18.50167964,0.714,76.2209,18-45-51,-0.7545524,0.96886253,0.4089134,72,0.1701667,0.015597426,-0.09427687,1
73.82194092,18.50167964,0.714,76.2209,18-45-51,1.2000351,0.22448826,1.2969238,75,0.10174979,0.038810305,-0.03380121,1
73.82194092,18.50167964,0.714,76.2209,18-45-51,0.5984493,-0.255476,1.5498903,77,0.10358239,0.03697771,-0.031968616,1
73.82194092,18.50167964,0.714,76.2209,18-45-51,-0.44901407,0.15488815,-0.9530168,78,0.027835093,0.003990986,-0.03502294,1
73.82194092,18.50167964,0.714,76.2209,18-45-51,-0.42525607,0.43269444,1.8872902,77,-0.25194117,0.02537127,-0.009366602,1
73.82194092,18.50167964,0.714,76.2209,18-45-51,0.22340235,-0.5888252,0.18296003,76,-0.044247005,-0.028384872,0.029728778,1
73.82194092,18.50167964,0.714,76.2209,18-45-51,0.11087912,0.38633537,-0.1519418,74,0.07853691,0.054081935,-0.08938995,1
73.82193245,18.50170998,0.716,77.4383,18-45-51,0.69853187,-0.44354153,0.97903854,76,0.03699807,0.044918958,-0.07106399,1
73.82193245,18.50170998,0.716,77.4383,18-45-51,1.243258,-0.10135651,0.782828,76,0.013785193,-0.013724105,-0.007534005,1
73.82193245,18.50170998,0.716,77.4383,18-45-51,0.4404656,0.5357132,-0.34816343,76,-0.13770938,-0.066869386,0.051719926,1
73.82193245,18.50170998,0.716,77.4383,18-45-52,0.14366278,1.7843714,3.6493554,76,-0.1603114,0.02903646,0.08043059,1
73.82193245,18.50170998,0.716,77.4383,18-45-52,-0.71998703,0.7123203,-0.36752865,80,0.15978199,-0.016778432,0.016900606,1
73.82193245,18.50170998,0.716,77.4383,18-45-52,-1.1969694,0.23180771,-4.1387014,81,0.17444275,0.066299245,-0.09794206,1
73.82193245,18.50170998,0.716,77.4383,18-45-52,2.4709427,0.77867985,-0.007018358,80,0.05898922,0.11883365,-0.23416501,1
73.82193245,18.50170998,0.716,77.4383,18-45-52,2.893221,-1.2764797,1.6902672,77,0.2966158,0.066299245,-0.1339831,1
73.82193245,18.50170998,0.716,77.4383,18-45-52,1.5585753,-1.8897266,1.4348569,74,0.060821816,-0.12978849,0.06576982,1
73.82193245,18.50170998,0.716,77.4383,18-45-52,1.1898583,-0.3787346,1.3570184,76,-0.13587679,-0.10107783,0.054774247,1
73.8219218,18.50174309,0.73399996,79.06669,18-45-52,0.34307945,-0.9170265,-0.33918345,78,-0.16642006,-0.10229956,0.13174328,1
73.8219218,18.50174309,0.73399996,79.06669,18-45-52,0.11547829,1.1673994,-0.88781863,81,-0.09250536,0.010099638,-0.011199197,1
73.8219218,18.50174309,0.73399996,79.06669,18-45-52,-0.63886034,1.2094374,0.28395373,82,-0.088840164,-0.005171993,-0.006923139,1
73.8219218,18.50174309,0.73399996,79.06669,18-45-53,1.037356,0.7657366,-2.590747,81,-0.07601199,-0.029606603,-0.028303422,1
73.8219218,18.50174309,0.73399996,79.06669,18-45-53,2.57042,0.7842436,-1.1829747,80,0.12496267,0.016819157,-0.03135775,1
73.8219218,18.50174309,0.73399996,79.06669,18-45-53,0.04993102,0.9909458,-1.3609903,82,0.16222546,-0.06198246,-0.040520728,1
73.8219218,18.50174309,0.73399996,79.06669,18-45-53,-2.1361818,0.1806984,-0.7998101,82,-0.069903344,-0.18232292,0.20382538,1
73.8219218,18.50174309,0.73399996,79.06669,18-45-53,2.0977938,0.95342827,-0.23366144,82,-0.20185024,-0.14506012,0.17328212,1
73.8219218,18.50174309,0.73399996,79.06669,18-45-53,-0.9532891,0.6119642,1.455656,82,0.09075422,-0.08641707,0.08898271,1
73.8219218,18.50174309,0.73399996,79.06669,18-45-53,-2.4209669,0.44129372,-0.4626789,83,0.098695464,-0.15300137,0.15373442,1
73.82191124,18.50177624,0.77599998,80.83644,18-45-53,-0.97579163,0.38923168,-0.21135844,82,0.055934895,0.0687427,0.008959357,1
73.82191124,18.50177624,0.77599998,80.83644,18-45-53,-1.3222276,-0.25194168,-3.070238,80,-0.055853445,-0.030217469,0.029117912,1
73.82191124,18.50177624,0.77599998,80.83644,18-45-53,-0.3310045,0.17447281,0.48326692,79,0.031500284,0.03942117,-0.03807727,1
73.82191124,18.50177624,0.77599998,80.83644,18-45-54,-1.1034572,0.109451294,-2.5021734,78,-0.0863967,0.0669101,-0.022194771,1
73.82191124,18.50177624,0.77599998,80.83644,18-45-54,1.3213836,-0.449852,0.8226532,78,-0.041803546,-0.01189151,0.010181088,1
73.82191124,18.50177624,0.77599998,80.83644,18-45-54,0.14490868,0.15660477,2.5780847,82,-0.07784459,-0.048543423,0.050498195,1
73.82191124,18.50177624,0.77599998,80.83644,18-45-54,1.5292212,-1.0750532,0.09229016,82,0.08464556,-0.068701975,0.057828575,1
73.82191124,18.50177624,0.77599998,80.83644,18-45-54,2.2334783,-0.7695341,3.7838318,79,0.10480412,-0.14139494,0.121358566,1
73.82191124,18.50177624,0.77599998,80.83644,18-45-54,-1.9392676,1.2231102,-2.9503756,77,-0.27943012,-0.13039938,0.16045395,1
73.82191124,18.50177624,0.77599998,80.83644,18-45-54,0.19668716,0.87541866,1.8635038,76,-0.15175928,-0.047932558,0.046833,1
73.82190135,18.50181873,0.91399994,82.936134,18-45-54,-2.538302,1.3652449,-2.5597973,77,0.080980375,0.003990986,-0.019140445,1
73.82190135,18.50181873,0.91399994,82.936134,18-45-54,-2.3767238,2.27598,1.7113719,79,-0.07051421,-0.06076073,-0.053959765,1
73.82190135,18.50181873,0.91399994,82.936134,18-45-54,-0.51975393,1.7843256,-1.9149559,79,0.45849508,0.06568837,-0.15291993,1
73.82190135,18.50181873,0.91399994,82.936134,18-45-55,1.8496659,-1.3954849,-1.051593,81,0.15306248,0.03453425,-0.17674369,1
73.82190135,18.50181873,0.91399994,82.936134,18-45-55,0.81512773,0.04545498,1.1273172,81,0.04371759,-0.031439196,-0.07595091,1
73.82190135,18.50181873,0.91399994,82.936134,18-45-55,2.1353319,0.18857193,2.446309,80,0.007065675,0.008267043,-0.03624467,1
73.82190135,18.50181873,0.91399994,82.936134,18-45-55,2.4837089,-1.1559877,-0.6723007,79,0.18116227,-0.109019086,0.09020444,1
73.82190135,18.50181873,0.91399994,82.936134,18-45-55,-0.013739914,-1.6310806,1.0913503,78,-0.077233724,-0.14628187,0.23375776,1
73.82190135,18.50181873,0.91399994,82.936134,18-45-55,-1.5509183,0.06667709,-0.9276328,80,-0.071125075,-0.032660928,0.08776098,1
73.82190135,18.50181873,0.91399994,82.936134,18-45-55,-3.384733,1.5674686,-0.95013046,81,0.043106724,0.03697771,-0.009977466,1
73.82189373,18.50186873,1.042,85.285866,18-45-55,-0.25080097,0.45935154,1.57733,80,0.118854016,0.20374393,-0.09977466,1
73.82189373,18.50186873,1.042,85.285866,18-45-55,-0.69952583,-1.3181944,-0.86422896,78,0.012563462,0.03514511,-0.029525153,1
73.82189373,18.50186873,1.042,85.285866,18-45-55,0.04374796,-2.0203934,-1.4606494,78,-0.22567397,-0.13223195,0.081041455,1
73.82189373,18.50186873,1.042,85.285866,18-45-56,-0.33730435,0.7081137,1.2939976,79,-0.069903344,-0.040602177,0.03522656,1
73.82189373,18.50186873,1.042,85.285866,18-45-56,-1.1368126,2.3351278,0.053762555,79,-0.006984226,0.002158391,-0.1498656,1
73.82189373,18.50186873,1.042,85.285866,18-45-56,-1.3759394,2.198657,0.57857966,80,-0.021034125,0.08034914,-0.17491108,1
73.82189373,18.50186873,1.042,85.285866,18-45-56,-1.0468771,1.1509285,-2.7081857,80,0.1261844,0.09012298,-0.14925474,1
73.82189373,18.50186873,1.042,85.285866,18-45-56,-1.3299315,0.44573975,4.6552205,80,-0.055853445,0.013153965,-0.12970705,1
73.82189373,18.50186873,1.042,85.285866,18-45-56,-0.7305049,-0.4331503,0.06715751,80,0.018672116,0.036366843,-0.0954986,1
73.82189373,18.50186873,1.042,85.285866,18-45-56,-0.5010748,-0.75008774,-0.10104394,81,0.022948172,0.08951212,-0.046018515,1
73.82189373,18.50186873,1.042,85.285866,18-45-56,-2.0508065,0.2462616,2.6945186,81,-0.13954198,0.13899222,-0.081448704,1
73.82187973,18.50191756,1.00599994,88.507774,18-45-56,-0.69377387,-0.21816921,-2.0362725,81,0.08769989,0.14571172,-0.11260283,1
73.82187973,18.50191756,1.00599994,88.507774,18-45-56,2.6047273,0.12318802,0.76030517,81,-0.069903344,-0.018611027,0.1170825,1
73.82187973,18.50191756,1.00599994,88.507774,18-45-57,4.3077517,-1.4132204,4.6698112,82,-0.13954198,-0.12673417,0.1525127,1
73.82187973,18.50191756,1.00599994,88.507774,18-45-57,1.1437646,-0.29428768,4.8355474,82,-0.27515405,-0.017389297,0.16289741,1
73.82187973,18.50191756,1.00599994,88.507774,18-45-57,-1.1605961,-2.3345504,1.0330209,83,-0.34906876,0.000937,0.20932317,1
73.82187973,18.50191756,1.00599994,88.507774,18-45-57,-2.3723488,0.12183094,3.1231017,82,-0.32952106,0.13227269,-0.10710504,1
73.82187973,18.50191756,1.00599994,88.507774,18-45-57,-2.6152484,-0.31584263,0.7546265,82,-0.47796133,0.16953546,-0.010588331,1
73.82187973,18.50191756,1.00599994,88.507774,18-45-57,-2.6712198,-0.5112438,-2.5091887,82,-0.09189449,0.2605544,-0.0796161,1
73.82187973,18.50191756,1.00599994,88.507774,18-45-57,-1.8829033,1.9282084,0.44381753,82,-0.15970053,0.06019059,0.012624547,1
73.82186204,18.50196324,0.97,92.17306,18-45-57,-1.5699571,1.4348154,-2.2336674,81,-0.12793554,0.09806424,-0.02097304,1
73.82186204,18.50196324,0.97,92.17306,18-45-57,-1.7989364,1.5634499,0.9170102,82,0.017450385,0.1249423,-0.085724756,1
73.82186204,18.50196324,0.97,92.17306,18-45-57,-1.248666,1.5724735,-1.803412,84,-0.005151629,0.05835799,0.004683301,1
73.82186204,18.50196324,0.97,92.17306,18-45-58,-0.11166108,0.991107,-0.5473428,84,0.2227011,-0.008837184,-0.00447968,1
73.82186204,18.50196324,0.97,92.17306,18-45-58,-0.97986287,-1.2363815,1.4010925,83,0.068152204,0.04186463,0.069435015,1
73.82186204,18.50196324,0.97,92.17306,18-45-58,-0.40918168,-1.0063162,2.3452146,83,-0.019201532,0.10050769,0.02239839,1
73.82186204,18.50196324,0.97,92.17306,18-45-58,-2.4704874,-1.7195711,5.995955,84,-0.28614965,0.17197892,-0.18163061,1
73.82186204,18.50196324,0.97,92.17306,18-45-58,-1.0520215,-1.7072029,2.2088137,85,-0.18474601,-0.02716314,0.059050307,1
73.82186204,18.50196324,0.97,92.17306,18-45-58,-1.0122812,-0.25201416,0.26546004,87,-0.3130277,-0.031439196,0.098145686,1
73.82186204,18.50196324,0.97,92.17306,18-45-58,0.1703462,-0.53842926,-0.12571722,87,-0.21345668,-0.028995737,0.08165232,1
73.82184125,18.50200766,1.02199994,96.23433,18-45-58,-1.6562904,1.1392994,0.47053078,87,-0.046079602,-0.049765155,0.09753481,1
73.82184125,18.50200766,1.02199994,96.23433,18-45-58,-0.83875513,1.8779345,2.175892,86,-0.29714522,-0.07908668,0.13418674,1
73.82184125,18.50200766,1.02199994,96.23433,18-45-58,-0.42817265,1.6875715,0.5876152,85,0.15000814,-0.12306898,0.10669779,1
73.82184125,18.50200766,1.02199994,96.23433,18-45-59,-1.8339683,-0.019019127,0.5896143,85,0.1878818,-0.07481063,0.043778673,1
73.82184125,18.50200766,1.02199994,96.23433,18-45-59,-1.1454353,-0.5236149,-0.03772738,85,0.11091277,0.010710504,0.005905032,1
73.82184125,18.50200766,1.02199994,96.23433,18-45-59,-1.6232626,0.6155462,-1.7646377,85,-0.31424943,0.014375695,-0.057624955,1
73.82184125,18.50200766,1.02199994,96.23433,18-45-59,-1.3941337,-0.37636375,1.2781676,85,-0.119383425,0.030258192,0.009570222,1
73.82184125,18.50200766,1.02199994,96.23433,18-45-59,-2.7394595,0.31624603,-0.893101,86,0.03638721,0.14326826,-0.1113811,1
73.82184125,18.50200766,1.02199994,96.23433,18-45-59,-3.0895174,1.0243845,1.2533569,83,0.007065675,0.16831374,-0.11443542,1
73.82184125,18.50200766,1.02199994,96.23433,18-45-59,-0.66749763,0.6556883,1.3846447,81,0.07364999,0.15792903,-0.081448704,1
73.82183053,18.50205858,1.124,99.82509,18-45-59,2.2396684,-0.6171627,-0.06567335,81,0.038219802,0.18236363,-0.04785111,1
73.82183053,18.50205858,1.124,99.82509,18-45-59,0.43207926,-0.6190853,-0.9624264,81,-0.04119268,0.08829039,0.021787524,1
73.82183053,18.50205858,1.124,99.82509,18-45-59,-2.078677,-1.439126,1.060667,80,-0.13343333,0.10967068,-0.027692558,1
73.82183053,18.50205858,1.124,99.82509,18-46-00,1.259532,-1.5032206,-0.81282383,80,-0.030807972,0.072407894,-0.07656178,1
73.82183053,18.50205858,1.124,99.82509,18-46-00,0.29677477,-0.8672428,-4.355625,80,-0.16825265,0.07485136,-0.016696984,1
73.82183053,18.50205858,1.124,99.82509,18-46-00,2.8511853,-1.1203251,0.9536177,80,-0.2305609,0.019262617,0.09570222,1
73.82183053,18.50205858,1.124,99.82509,18-46-00,1.1007867,-1.0721369,-0.009092838,78,-0.09922487,-0.05404121,0.07065675,1
73.82183053,18.50205858,1.124,99.82509,18-46-00,0.12005979,0.8882227,-4.163373,78,-0.56103903,-0.19759455,0.02789618,1
73.82183053,18.50205858,1.124,99.82509,18-46-00,-1.145889,1.6744099,-0.50038934,80,0.060821816,0.040642902,-0.022805637,1
73.82183053,18.50205858,1.124,99.82509,18-46-00,0.38305008,0.8791952,-3.888795,80,0.09014335,0.084014334,-0.08205956,1
73.82181603,18.50211541,1.27599992,104.28962,18-46-00,-0.13348901,2.3942108,0.033657342,79,0.031500284,-0.047932558,-0.011810061,1
73.82181603,18.50211541,1.27599992,104.28962,18-46-00,-0.39551485,0.6482334,-2.4739714,79,0.057767488,-0.09558005,-0.006312273,1
73.82181603,18.50211541,1.27599992,104.28962,18-46-00,0.4702986,0.46312618,-2.23158,81,-0.09189449,-0.00944805,-0.03257948,1
73.82181603,18.50211541,1.27599992,104.28962,18-46-01,0.010083005,-0.1457634,-2.0945647,82,-0.033862296,-0.065647654,0.023009256,1
73.82181603,18.50211541,1.27599992,104.28962,18-46-01,-1.0419123,-0.5178089,0.5877005,82,0.052880567,-0.08214101,0.108530395,1
73.82181603,18.50211541,1.27599992,104.28962,18-46-01,-1.5407944,0.89533234,-0.77929044,82,-0.23728041,-0.02105449,0.1592322,1
73.82181603,18.50211541,1.27599992,104.28962,18-46-01,-0.7391259,-0.31920242,3.3114061,82,0.16161458,-0.08275188,0.13540846,1
73.82181603,18.50211541,1.27599992,104.28962,18-46-01,-0.243465,0.9534445,-1.1552924,82,0.12740614,-0.019832758,0.05416338,1
73.82181603,18.50211541,1.27599992,104.28962,18-46-01,-2.8918808,0.25360966,-0.61137015,82,0.13168219,-0.1420058,0.16595173,1
73.82181603,18.50211541,1.27599992,104.28962,18-46-01,0.2166574,-0.40913963,-0.040429592,80,-0.049133927,0.018651752,-0.11810061,1
73.82179599,18.50217576,1.424,109.65828,18-46-01,0.6250006,1.2905283,-0.8430524,80,-0.038138352,-0.06198246,0.005905032,1
73.82179599,18.50217576,1.424,109.65828,18-46-01,-1.2883186,1.6751709,1.2993524,81,-0.14870496,-0.07664323,0.010181088,1
73.82179599,18.50217576,1.424,109.65828,18-46-01,0.21720022,2.4807158,1.0084261,80,0.05165884,-0.041213043,-0.044185918,1
73.82179599,18.50217576,1.424,109.65828,18-46-02,0.060345113,2.2078285,-1.4332769,79,0.114577964,-0.19087502,0.12502375,1
73.82179599,18.50217576,1.424,109.65828,18-46-02,1.8592033,3.644864,8.670735,79,0.36197838,-0.054652076,-0.02097304,1
73.82179599,18.50217576,1.424,109.65828,18-46-02,-0.8977488,-0.39009285,-6.486795,79,0.73460615,-0.002117666,-0.10099639,1
73.82179599,18.50217576,1.424,109.65828,18-46-02,0.8870848,1.2091265,-3.9399436,78,0.70345205,-0.017389297,0.18794286,1
73.82179599,18.50217576,1.424,109.65828,18-46-02,1.9416629,0.5520277,5.5627437,77,-0.19818504,0.1512095,0.015678875,1
73.82179599,18.50217576,1.424,109.65828,18-46-02,0.9134513,-1.3778782,3.9956527,77,0.16161458,-0.1016887,-0.06495534,1
73.82179599,18.50217576,1.424,109.65828,18-46-02,1.7350409,-2.2207017,2.016758,76,-0.27576494,-0.14322755,0.0908153,1
73.82178484,18.50224227,1.336,114.846565,18-46-02,1.8645931,-1.3385754,-0.47992992,76,-0.08456411,-0.08214101,0.041946083,1
73.82178484,18.50224227,1.336,114.846565,18-46-02,0.8040798,0.45296,-0.45734808,77,-0.09372709,-0.10291043,0.034615695,1
73.82178484,18.50224227,1.336,114.846565,18-46-02,0.04953736,1.2137823,-1.0255711,77,-0.035694893,-0.06381506,-0.035633806,1
73.82178484,18.50224227,1.336,114.846565,18-46-03,1.1927521,0.5157919,-1.3529197,77,0.2825659,0.07424049,0.06576982,1
73.82178484,18.50224227,1.336,114.846565,18-46-03,-0.16845834,1.9072685,-5.60393,77,0.3900782,-0.033271793,-0.14009176,1
73.82178484,18.50224227,1.336,114.846565,18-46-03,0.29865676,-0.012795448,1.8359582,78,0.24163793,0.043697227,-0.119322345,1
73.82178484,18.50224227,1.336,114.846565,18-46-03,0.015350282,-1.4061327,2.5796785,77,0.14512122,0.011932234,-0.14681128,1
73.82178484,18.50224227,1.336,114.846565,18-46-03,0.64342856,-1.5334005,4.4159827,77,-0.09861401,0.023538673,-0.08816822,1
73.82178484,18.50224227,1.336,114.846565,18-46-03,1.6932354,-1.7119865,3.0024307,78,-0.041803546,0.007656178,-0.082670435,1
73.82178484,18.50224227,1.336,114.846565,18-46-03,0.9449639,-1.224925,-0.35562664,78,0.20376429,0.006434447,-0.09122254,1
73.82177277,18.50229814,1.10599994,119.614,18-46-03,0.18072891,0.24859333,-0.7516402,78,-0.03630576,-0.008837184,-0.047240246,1
73.82177277,18.50229814,1.10599994,119.614,18-46-03,0.6955061,-0.51273537,-1.0493402,77,-0.16458745,0.043697227,-0.07350745,1
73.82177277,18.50229814,1.10599994,119.614,18-46-03,-0.6897655,0.30618763,2.4033453,77,-0.1865786,0.04980588,-0.028914288,1
73.82177277,18.50229814,1.10599994,119.614,18-46-04,-0.050720282,1.5588827,-2.3217514,77,-0.15237015,-0.058317266,-0.022194771,1
73.82177277,18.50229814,1.10599994,119.614,18-46-04,-0.59883314,0.33112144,-1.846514,77,-0.027142778,-0.06931284,0.01506801,1
73.82177277,18.50229814,1.10599994,119.614,18-46-04,0.13113762,-0.53129864,-2.6235,78,-0.08456411,-0.043045636,0.029117912,1
73.82177277,18.50229814,1.10599994,119.614,18-46-04,-0.43220413,0.14929199,-3.3232832,79,-0.071125075,0.040642902,0.04988733,1
73.82177277,18.50229814,1.10599994,119.614,18-46-04,-0.61596537,0.8941431,-2.2924159,79,-0.09250536,-0.046099965,-0.040520728,1
73.82177277,18.50229814,1.10599994,119.614,18-46-04,-1.7468692,0.6220827,-1.3198872,79,-0.15298101,-0.01311324,0.016900606,1
73.82177277,18.50229814,1.10599994,119.614,18-46-04,-2.0007927,-0.37187672,-3.3221116,79,0.111523636,0.12249885,0.051719926,1
73.82176196,18.50234038,0.94,123.44813,18-46-04,-0.8489728,0.52538395,1.1095488,80,0.09075422,0.017430022,-0.12787446,1
73.82176196,18.50234038,0.94,123.44813,18-46-04,-1.7344251,0.28187943,-1.9249165,80,-0.027753644,0.16587028,0.015678875,1
73.82176196,18.50234038,0.94,123.44813,18-46-04,-0.7187924,-0.001131058,-1.5356537,79,-0.034473162,0.092566445,0.06760242,1
73.82176196,18.50234038,0.94,123.44813,18-46-05,0.005229134,-1.924254,1.4458307,79,-0.017368935,0.021095213,0.047443867,1
73.82176196,18.50234038,0.94,123.44813,18-46-05,-0.32977864,-0.33354378,-1.5695388,80,-0.15908967,0.10234029,-0.033190347,1
73.82176196,18.50234038,0.94,123.44813,18-46-05,-0.11835736,-0.25848007,-1.0288006,83,0.27523553,0.032090787,-0.12237667,1
73.82176196,18.50234038,0.94,123.44813,18-46-05,-0.6524623,1.2470045,-2.729694,83,0.022337306,-0.09435832,0.008959357,1
73.82176196,18.50234038,0.94,123.44813,18-46-05,-0.2725452,0.14170933,-0.22461599,83,-0.12365949,-0.007004588,0.029728778,1
73.82176196,18.50234038,0.94,123.44813,18-46-05,-1.1112676,0.63738155,2.503459,82,0.36930877,-0.01311324,0.017511472,1
73.82176196,18.50234038,0.94,123.44813,18-46-05,-2.9150054,0.9944916,3.170994,82,0.5281337,0.030869057,-0.09000081,1
73.82175953,18.5023807,0.85599994,126.541824,18-46-05,-2.323788,0.4796362,-3.8086228,81,0.15122987,0.27216083,-0.20728695,1
73.82175953,18.5023807,0.85599994,126.541824,18-46-05,-0.90906614,4.2949476,-12.094388,81,0.68085,-0.060149863,-0.08938995,1
73.82175953,18.5023807,0.85599994,126.541824,18-46-05,-3.0378604,0.4083414,7.3540955,81,-0.09800314,0.17869845,-0.084503025,1
73.82175953,18.5023807,0.85599994,126.541824,18-46-06,-1.4787786,-0.36737823,-3.0640953,81,-0.15970053,0.03942117,0.099978276,1
73.82175953,18.5023807,0.85599994,126.541824,18-46-06,0.5569529,-0.5631418,-2.7131298,80,0.2843985,0.004601852,-0.05029457,1
73.82175953,18.5023807,0.85599994,126.541824,18-46-06,-0.16088395,0.4607153,3.4843478,79,0.18360573,0.026593,-0.05457063,1
73.82175953,18.5023807,0.85599994,126.541824,18-46-06,3.6915977,-2.1182652,3.1484103,79,-0.12304862,-0.014945837,0.09509135,1
73.82175953,18.5023807,0.85599994,126.541824,18-46-06,3.163116,0.18118668,9.6680155,78,-0.34601444,0.09378818,0.08287405,1
73.82175953,18.5023807,0.85599994,126.541824,18-46-06,-3.4261267,0.5931454,-3.951663,77,-0.08334238,-0.007004588,-0.04174246,1
73.82175953,18.5023807,0.85599994,126.541824,18-46-06,-1.9629345,-0.29559612,1.058098,77,-0.026531912,0.08767953,-0.013642658,1
73.82174989,18.50241511,0.774,129.83638,18-46-06,-0.9784384,-0.71556664,3.8892093,75,-0.120605156,0.14449,-0.046018515,1
73.82174989,18.50241511,0.774,129.83638,18-46-06,0.17012627,-0.9309597,6.763105,73,-0.21773273,0.08157087,-0.049683705,1
73.82174989,18.50241511,0.774,129.83638,18-46-06,-0.8095903,-0.061820984,-4.180616,72,0.2422488,0.05835799,-0.07472918,1
73.82174989,18.50241511,0.774,129.83638,18-46-07,-0.4657954,0.83104134,4.3533716,68,-0.18230255,0.09989683,-0.013642658,1
73.82174989,18.50241511,0.774,129.83638,18-46-07,-0.5886936,0.8775263,1.2048966,66,-0.22995004,0.016208291,0.057828575,1
73.82174989,18.50241511,0.774,129.83638,18-46-07,0.37165713,0.49622917,-4.4890027,67,-0.6141843,-0.032660928,0.13418674,1
73.82174989,18.50241511,0.774,129.83638,18-46-07,0.098725766,0.37984753,0.14791799,71,-0.32829934,-0.06503679,0.15739962,1
73.82174989,18.50241511,0.774,129.83638,18-46-07,0.039916843,-0.21545887,-1.0066419,73,-0.088840164,-0.08214101,0.09753481,1
73.82174989,18.50241511,0.774,129.83638,18-46-07,-1.0598967,0.12657166,0.5177379,74,-0.15359189,0.009488774,0.001018107,1
73.82174989,18.50241511,0.774,129.83638,18-46-07,-0.7208323,0.71676826,2.2234902,73,0.07487172,-0.03876958,-0.01975131,1
73.82173765,18.5024496,0.844,133.37286,18-46-07,-1.1358892,0.001932144,-0.8796868,70,0.004011349,-0.026552275,0.079819724,1
73.82173765,18.5024496,0.844,133.37286,18-46-07,1.6922565,-0.9241648,3.1516054,69,-0.16947438,-0.123679854,0.07615454,1
73.82173765,18.5024496,0.844,133.37286,18-46-07,-0.78091955,-0.45894718,-2.6818566,69,0.018672116,-0.041213043,-0.005090542,1
73.82173765,18.5024496,0.844,133.37286,18-46-08,-0.1915642,1.3226919,1.3117099,69,-0.13465506,-0.06320419,0.01628974,1
73.82173765,18.5024496,0.844,133.37286,18-46-08,-1.1706083,1.3349848,-0.78312844,70,-0.02836451,-0.09496918,0.05721771,1
73.82173765,18.5024496,0.844,133.37286,18-46-08,-0.009472728,1.0178146,3.3442264,71,-0.311806,-0.10718649,0.027285315,1
73.82173765,18.5024496,0.844,133.37286,18-46-08,-1.9213022,-0.023778915,-2.9173331,70,-0.12610294,-0.028384872,-0.049683705,1
73.82173765,18.5024496,0.844,133.37286,18-46-08,-0.5222998,0.047249794,0.34179512,70,-0.027142778,0.057136264,-0.030746885,1
73.82173765,18.5024496,0.844,133.37286,18-46-08,-2.2506857,1.215702,-2.283437,68,-0.08761843,0.045529824,0.009570222,1
73.82173765,18.5024496,0.844,133.37286,18-46-08,-0.7543961,1.5287418,-0.18665248,68,-0.065627284,0.05774713,-0.03380121,1
73.8217188,18.50248958,0.97199994,137.86191,18-46-08,0.06489362,-1.2664232,-0.66037995,68,0.046771914,0.0705753,-0.013031792,1
73.8217188,18.50248958,0.97199994,137.86191,18-46-08,1.7007787,0.832798,5.7035294,70,0.29783753,0.020484347,-0.085724756,1
73.8217188,18.50248958,0.97199994,137.86191,18-46-08,0.30173472,-0.2001276,-3.7218437,71,-0.021034125,0.08829039,-0.04296419,1
73.8217188,18.50248958,0.97199994,137.86191,18-46-09,-1.4578658,0.69406414,-4.778536,70,0.29600495,0.123109706,-0.11443542,1
73.8217188,18.50248958,0.97199994,137.86191,18-46-09,-1.0683235,1.9373693,1.0330753,70,0.04493932,0.10600548,-0.14803301,1
73.8217188,18.50248958,0.97199994,137.86191,18-46-09,-0.19718145,0.37670612,-2.3653426,70,-0.07356854,0.095620774,-0.056403223,1
73.8217188,18.50248958,0.97199994,137.86191,18-46-09,2.025251,0.9269724,0.86395204,70,-0.02836451,0.11333586,-0.07839437,1
73.8217188,18.50248958,0.97199994,137.86191,18-46-09,1.7158674,0.949317,2.567174,71,-0.17069611,-0.012502376,0.010181088,1
73.8217188,18.50248958,0.97199994,137.86191,18-46-09,-0.06929609,0.30997372,-3.5142648,72,0.25019005,0.08584693,-0.08938995,1
73.8217188,18.50248958,0.97199994,137.86191,18-46-09,-0.29032046,1.5744991,2.0815492,73,0.2104838,0.03453425,0.019344065,1
73.82171008,18.50254201,1.18,142.58891,18-46-09,-2.546461,0.29975986,-5.6940413,73,-0.08456411,-0.032660928,0.14457145,1
73.82171008,18.50254201,1.18,142.58891,18-46-09,-2.0056386,-1.042553,-5.7513413,72,0.18849266,0.18602884,-0.058846686,1
73.82171008,18.50254201,1.18,142.58891,18-46-09,-1.8065013,1.0070028,-0.3168553,71,0.042495858,0.055914532,0.00346157,1
73.82171008,18.50254201,1.18,142.58891,18-46-10,1.8423289,1.4995995,3.5471683,71,0.092586815,0.02903646,0.048665598,1
73.82171008,18.50254201,1.18,142.58891,18-46-10,-1.3449612,-2.039897,-5.1730804,70,-0.058907773,-0.06442592,0.07065675,1
73.82171008,18.50254201,1.18,142.58891,18-46-10,-2.0307271,0.09131241,-0.9311142,70,-0.21101321,-0.032050062,0.032172233,1
73.82171008,18.50254201,1.18,142.58891,18-46-10,-0.44526786,-0.7244482,-0.6921201,70,-0.07540113,0.005823582,-0.015475253,1
73.82171008,18.50254201,1.18,142.58891,18-46-10,2.8234048,-0.14167595,1.3600293,70,-0.023477588,0.02537127,-0.06617707,1
73.82171008,18.50254201,1.18,142.58891,18-46-10,2.3183374,-0.35054207,2.4256425,70,-0.025310185,-0.025941411,-0.016696984,1
73.82171008,18.50254201,1.18,142.58891,18-46-10,0.39590788,0.19058418,-0.86000526,69,0.043106724,0.011932234,-0.04540765,1
73.82169449,18.50259314,1.25999994,147.79422,18-46-10,-1.0121586,1.0155764,-1.2595913,70,-0.049133927,-0.06931284,0.0327831,1
73.82169449,18.50259314,1.25999994,147.79422,18-46-10,-0.6177847,1.0005531,-0.7860872,69,-0.20918062,-0.04243477,0.05843944,1
73.82169449,18.50259314,1.25999994,147.79422,18-46-10,-1.27898,1.355876,-0.26912677,68,-0.069903344,0.04614069,-0.014253523,1
73.82169449,18.50259314,1.25999994,147.79422,18-46-11,-1.699903,1.1126995,-0.3396101,68,0.050437108,0.030258192,-0.093666,1
73.82169449,18.50259314,1.25999994,147.79422,18-46-11,0.52038187,0.32158566,-0.22632217,68,0.16100372,0.043697227,-0.04907284,1
73.82169449,18.50259314,1.25999994,147.79422,18-46-11,2.225863,-0.25571537,4.1731596,69,0.11518883,0.000326,-0.10832677,1
73.82169449,18.50259314,1.25999994,147.79422,18-46-11,0.48405617,-0.267663,1.3166181,68,-0.04119268,-0.13467541,0.05416338,1
73.82169449,18.50259314,1.25999994,147.79422,18-46-11,0.40961337,2.3620892,1.1012784,68,-0.31241685,-0.15300137,0.16350827,1
73.82169449,18.50259314,1.25999994,147.79422,18-46-11,0.36799935,0.4943962,-0.833945,69,-0.07479026,-0.066869386,0.16778433,1
73.82169449,18.50259314,1.25999994,147.79422,18-46-11,-0.3430829,-1.9701843,6.293644,68,0.48048624,-0.06992371,-0.010588331,1
73.82167747,18.5026506,1.238,153.66713,18-46-11,1.3087614,0.692461,2.7346792,67,0.17077756,0.04858415,-0.12176581,1
73.82167747,18.5026506,1.238,153.66713,18-46-11,1.3185205,0.48487473,2.5681958,66,-0.036916625,0.03453425,0.015678875,1
73.82167747,18.5026506,1.238,153.66713,18-46-11,-1.146843,-0.7144413,0.22988194,66,0.013174328,0.007045313,0.006515894,1
73.82167747,18.5026506,1.238,153.66713,18-46-12,-1.7765113,-0.019021988,-0.69647133,67,-0.013703742,0.06385578,0.07187848,1
73.82167747,18.5026506,1.238,153.66713,18-46-12,-0.9039086,0.3430643,-1.5266116,67,-0.23850214,0.13960308,-0.062511876,1
73.82167747,18.5026506,1.238,153.66713,18-46-12,1.5167603,-1.0771542,2.2356174,67,0.12923872,0.20863083,-0.00447968,1
73.82167747,18.5026506,1.238,153.66713,18-46-12,1.1643326,-1.0557575,1.8135512,68,-0.14137457,-0.028995737,0.010181088,1
73.82167747,18.5026506,1.238,153.66713,18-46-12,1.3015344,-1.1982574,3.4295537,69,-0.16336572,0.003380121,0.06149377,1
73.82167747,18.5026506,1.238,153.66713,18-46-12,-0.10745952,0.6158266,-2.1784418,70,-0.001486438,0.042475495,0.079819724,1
73.82167747,18.5026506,1.238,153.66713,18-46-12,-2.053449,1.1139097,8.651589,70,-0.6642752,0.07607309,0.021787524,1
73.82165987,18.50270977,1.32199994,159.78122,18-46-12,-0.29418695,1.2245016,-5.245174,70,0.018672116,0.03697771,0.109752126,1
73.82165987,18.50270977,1.32199994,159.78122,18-46-12,1.9023598,-1.680378,0.073210195,70,0.10480412,0.020484347,-0.08694649,1
73.82165987,18.50270977,1.32199994,159.78122,18-46-13,0.5089235,-0.70332146,-0.9643916,70,0.14756468,-0.072978035,0.09386962,1
73.82165987,18.50270977,1.32199994,159.78122,18-46-13,1.7274765,-0.00370121,1.4862516,70,0.06326528,-0.08153015,0.17633644,1
73.82165987,18.50270977,1.32199994,159.78122,18-46-13,-1.1949995,0.35221767,-1.2291864,71,0.000346,0.043697227,0.031561367,1
73.82165987,18.50270977,1.32199994,159.78122,18-46-13,0.13275516,-0.24255562,0.29696226,70,0.06876307,0.007656178,0.0327831,1
73.82165987,18.50270977,1.32199994,159.78122,18-46-13,0.66224384,0.62286663,-0.6459744,70,-0.033862296,0.03819944,-0.021583905,1
73.82165987,18.50270977,1.32199994,159.78122,18-46-13,-0.77924323,0.49390793,-0.4603221,71,0.07181739,0.03697771,-0.002036218,1
73.82165987,18.50270977,1.32199994,159.78122,18-46-13,0.08104074,0.07814407,0.3002987,71,-0.06379469,-0.02105449,0.046222135,1
73.82165987,18.50270977,1.32199994,159.78122,18-46-13,-0.26833326,-0.33635807,0.8842373,71,0.054713164,-0.030217469,0.05416338,1
73.82163531,18.50277205,1.338,166.68724,18-46-13,-0.13357832,-0.108522415,0.34329963,71,0.042495858,-0.07664323,0.035837427,1
73.82163531,18.50277205,1.338,166.68724,18-46-13,-0.10789433,0.21694374,-0.5648042,71,-0.060129505,0.002769256,0.00712676,1
73.82163531,18.50277205,1.338,166.68724,18-46-14,-0.66795117,-0.13764572,0.7575316,71,-0.00637336,-0.07603236,0.110362984,1
73.82163531,18.50277205,1.338,166.68724,18-46-14,0.09826699,-0.73895264,0.011704445,71,0.002789618,-0.019221893,-0.019140445,1
73.82163531,18.50277205,1.338,166.68724,18-46-14,0.61535835,-0.032978058,1.8072551,71,-0.008816821,-0.000896,-0.0234165,1
73.82163531,18.50277205,1.338,166.68724,18-46-14,-0.044176728,-0.20628834,1.002341,71,0.013174328,-0.022276219,-0.022194771,1
73.82163531,18.50277205,1.338,166.68724,18-46-14,0.13446319,-0.59925747,1.1448222,72,0.005843945,0.015597426,-0.081448704,1
73.82163531,18.50277205,1.338,166.68724,18-46-14,-0.18222708,-0.17429733,1.2475591,72,0.017450385,-0.059538998,-0.020362174,1
73.82163531,18.50277205,1.338,166.68724,18-46-14,-0.71386707,0.17314339,0.84919,71,-0.04485787,0.041253768,-0.07350745,1
73.82163531,18.50277205,1.338,166.68724,18-46-14,0.32760012,-1.27075,-1.2175772,71,-0.000265,-0.001506801,-0.06923139,1
73.82161377,18.50283642,1.37599992,173.60649,18-46-14,-0.8175351,-0.9650707,-0.9209897,71,0.005843945,-0.02716314,0.00346157,1
73.82161377,18.50283642,1.37599992,173.60649,18-46-14,0.007270336,-0.69605637,-1.3039708,72,-0.028975375,-0.017389297,-0.05029457,1
73.82161377,18.50283642,1.37599992,173.60649,18-46-15,0.519087,-0.6372347,0.7651181,73,0.042495858,-0.004561127,-0.03502294,1
73.82161377,18.50283642,1.37599992,173.60649,18-46-15,0.33863157,-0.5969267,0.7074106,74,-0.06807075,-0.096190915,0.03828089,1
73.82161377,18.50283642,1.37599992,173.60649,18-46-15,-0.12633508,0.13404274,1.3018273,76,-0.006984226,-0.055262942,0.00346157,1
73.82161377,18.50283642,1.37599992,173.60649,18-46-15,-1.4127944,0.4020033,0.002914429,77,0.096252,-0.09008226,0.007737625,1
73.82161377,18.50283642,1.37599992,173.60649,18-46-15,0.3522613,-0.52038,-0.22677755,76,0.042495858,-0.052208617,-0.03807727,1
73.82161377,18.50283642,1.37599992,173.60649,18-46-15,1.247689,-0.15983963,0.4264613,76,0.059600085,-0.085806206,-0.09000081,1
73.82161377,18.50283642,1.37599992,173.60649,18-46-15,1.967969,2.326684,1.8606623,75,0.08220211,-0.2702875,0.023009256,1
73.82161377,18.50283642,1.37599992,173.60649,18-46-15,-0.49856442,1.6333017,-1.2977649,76,0.20315342,-0.035715256,-0.26654086,1
73.82159483,18.50289992,1.40599994,180.32298,18-46-15,0.8530698,-4.3395643,-1.0751684,76,0.1842166,0.026593,-0.18285233,1
73.82159483,18.50289992,1.40599994,180.32298,18-46-15,3.4621177,-0.9134445,-0.09756079,76,0.28317678,-0.15422311,-0.04662938,1
73.82159483,18.50289992,1.40599994,180.32298,18-46-16,3.8899922,-1.7467537,2.7384548,76,0.025391633,-0.15666658,-0.006312273,1
73.82159483,18.50289992,1.40599994,180.32298,18-46-16,-1.2055058,-3.4956546,3.8544543,80,0.060821816,-0.11329514,0.23009259,1
73.82159483,18.50289992,1.40599994,180.32298,18-46-16,0.6418378,-0.95184803,4.9675393,78,-0.28248444,-0.1420058,0.3858632,1
73.82159483,18.50289992,1.40599994,180.32298,18-46-16,1.8074871,0.24571133,-3.8225837,76,-0.040581815,-0.19087502,0.20077103,1
73.82159483,18.50289992,1.40599994,180.32298,18-46-16,0.7443243,-0.14434147,6.4875274,75,-0.59708005,-0.1401732,0.14640403,1
73.82159483,18.50289992,1.40599994,180.32298,18-46-16,-1.0419376,0.63167953,-0.9702099,77,-0.016147204,-0.041213043,0.0627155,1
73.82159483,18.50289992,1.40599994,180.32298,18-46-16,0.32592386,2.3761873,1.0136738,77,-0.17375043,-0.055873808,0.21665356,1
73.82159483,18.50289992,1.40599994,180.32298,18-46-16,5.338616,2.12288,-4.9298654,76,-0.015536339,-0.28494826,0.359596,1
73.82157857,18.50295788,1.284,186.42625,18-46-16,3.495791,3.2170267,4.0865397,75,0.15000814,0.019262617,0.09509135,1
73.82157857,18.50295788,1.284,186.42625,18-46-16,-5.959079,-2.0801215,-1.2268085,75,0.45727336,0.07424049,-0.07472918,1
73.82157857,18.50295788,1.284,186.42625,18-46-17,3.1161473,-0.19333076,-4.5604467,75,-0.013092878,0.17258981,-0.19812396,1
73.82157857,18.50295788,1.284,186.42625,18-46-17,2.6632822,-1.4079752,2.8136845,76,-0.21040235,0.067520976,0.14029539,1
73.82157857,18.50295788,1.284,186.42625,18-46-17,1.7177596,-0.3092184,-1.3260872,76,0.050437108,0.0546928,0.05110906,1
73.82157857,18.50295788,1.284,186.42625,18-46-17,-2.4892948,-0.42438602,-3.915487,76,-0.2782084,0.055914532,-0.031968616,1
73.82157857,18.50295788,1.284,186.42625,18-46-17,-0.058100015,1.1214056,-3.0626783,74,-0.09922487,0.09989683,-0.050905436,1
73.82157857,18.50295788,1.284,186.42625,18-46-17,-0.35052508,1.4644518,-3.950176,74,-0.06318382,0.123109706,-0.047240246,1
73.82157857,18.50295788,1.284,186.42625,18-46-17,-0.6490722,1.2799053,-1.4525943,75,-0.011260281,0.13166183,-0.10649417,1
73.82157857,18.50295788,1.284,186.42625,18-46-17,-0.006261692,0.8258877,2.93084,76,0.43650395,0.07607309,-0.113213696,1
73.8215608,18.50301152,1.298,192.28012,18-46-17,1.433013,0.76242924,-4.4465966,77,-0.03997095,0.07424049,-0.124820136,1
73.8215608,18.50301152,1.298,192.28012,18-46-17,0.32391748,0.9129181,-0.04159224,77,0.051047973,0.06996443,-0.09183341,1
73.8215608,18.50301152,1.298,192.28012,18-46-18,0.03697803,-0.007711411,0.84661216,77,0.0522697,-0.011280645,-0.035633806,1
73.8215608,18.50301152,1.298,192.28012,18-46-18,-0.06998071,-0.5655279,0.8335884,77,0.087089024,-0.08702794,0.09448049,1
73.8215608,18.50301152,1.298,192.28012,18-46-18,0.8886178,0.24565125,-0.8507266,76,-0.090061896,-0.022276219,0.028507046,1
73.8215608,18.50301152,1.298,192.28012,18-46-18,1.9423528,0.3441887,0.29997486,76,0.04860451,-0.08824967,0.043167807,1
73.8215608,18.50301152,1.298,192.28012,18-46-18,0.27047598,0.23132992,1.5235336,75,-0.048523065,0.02292781,-0.062511876,1
73.8215608,18.50301152,1.298,192.28012,18-46-18,-1.1406875,0.38053322,1.4623907,75,-0.17680477,0.003380121,-0.040520728,1
73.8215608,18.50301152,1.298,192.28012,18-46-18,-0.2945426,1.0269794,-0.4915005,74,0.01928298,-0.059538998,0.02239839,1
73.8215608,18.50301152,1.298,192.28012,18-46-18,0.7249162,0.57379436,-0.83991534,74,-0.038749218,-0.021665353,-0.04785111,1
73.82154495,18.50306303,1.132,197.84546,18-46-18,0.8980586,0.053702354,-1.8267859,74,0.14573209,-0.054652076,-0.057624955,1
73.82154495,18.50306303,1.132,197.84546,18-46-18,0.1230005,0.87973213,2.0752485,73,-0.04485787,-0.09985611,-0.022194771,1
73.82154495,18.50306303,1.132,197.84546,18-46-19,-0.20482144,0.47185802,1.7647967,73,0.03211115,-0.024108816,-0.036855537,1
73.82154495,18.50306303,1.132,197.84546,18-46-19,0.89685166,-0.28146076,1.0869575,73,0.051047973,0.015597426,-0.07106399,1
73.82154495,18.50306303,1.132,197.84546,18-46-19,0.6524211,-0.046987534,0.9521301,72,-0.035084028,-0.09985611,0.05110906,1
73.82154495,18.50306303,1.132,197.84546,18-46-19,-0.3976435,1.016139,2.2819498,73,0.019893846,-0.07236717,0.0187332,1
73.82154495,18.50306303,1.132,197.84546,18-46-19,0.34743384,0.10820389,-0.85184646,73,-0.024088454,0.008877909,-0.060068414,1
73.82154495,18.50306303,1.132,197.84546,18-46-19,0.27190468,0.45922565,1.300673,73,0.010730867,-0.03876958,-0.02097304,1
73.82154495,18.50306303,1.132,197.84546,18-46-19,-0.8002938,0.598238,-0.45453882,73,-0.038138352,-0.058928132,0.037670024,1
73.82154495,18.50306303,1.132,197.84546,18-46-19,-0.094434924,0.10150528,-1.595844,73,0.087089024,-0.05037602,-0.008755736,1
73.82152903,18.50311189,1.138,203.20084,18-46-19,0.2658866,0.48803425,-2.4290426,73,0.016228653,-0.004561127,-0.025859963,1
73.82152903,18.50311189,1.138,203.20084,18-46-19,-0.344546,0.16799831,-1.9110868,74,0.05898922,-0.047321696,0.020565797,1
73.82152903,18.50311189,1.138,203.20084,18-46-20,0.048389647,0.21133518,-0.96905077,74,-0.05951864,0.001547525,-0.012420926,1
73.82152903,18.50311189,1.138,203.20084,18-46-20,0.41918403,0.15677834,-0.9086434,74,-0.07234681,0.007045313,-0.013031792,1
73.82152903,18.50311189,1.138,203.20084,18-46-20,-0.27470922,0.5646801,-0.31155545,75,0.023559038,-0.039380446,0.012013681,1
73.82152903,18.50311189,1.138,203.20084,18-46-20,-0.41339827,0.37673664,-0.79094523,76,-0.024088454,-0.06442592,0.074932806,1
73.82152903,18.50311189,1.138,203.20084,18-46-20,-0.037713647,0.09015083,0.13804945,76,0.06326528,-0.047321696,-0.009977466,1
73.82152903,18.50311189,1.138,203.20084,18-46-20,0.7139809,-0.03548813,-2.0622926,77,-0.013092878,-0.058928132,-0.039909862,1
73.82152903,18.50311189,1.138,203.20084,18-46-20,0.16256228,0.49920273,3.2075984,77,0.15733853,-0.022887085,0.011402819,1
73.82152903,18.50311189,1.138,203.20084,18-46-20,0.72924423,0.023726463,1.0986019,77,0.049826242,-0.034493525,-0.00447968,1
73.82151805,18.5031567,1.09,207.90295,18-46-20,-0.23696254,-0.100224495,0.26224983,77,-0.031418838,-0.07908668,0.034615695,1
73.82151805,18.5031567,1.09,207.90295,18-46-20,0.3241973,-0.084160805,0.33469784,77,-0.014925473,-0.07053457,-0.006923139,1
73.82151805,18.5031567,1.09,207.90295,18-46-21,-0.14164369,-0.14334297,-0.855228,77,0.002178754,-0.07603236,-0.028914288,1
73.82151805,18.5031567,1.09,207.90295,18-46-21,-1.0357364,0.41001225,0.3024708,77,-0.030197106,-0.084584475,-0.016696984,1
73.82151805,18.5031567,1.09,207.90295,18-46-21,-0.48258215,0.56445694,0.043444037,77,-0.003319033,-0.05037602,0.012013681,1
73.82151805,18.5031567,1.09,207.90295,18-46-21,0.18879956,0.26027203,-0.2350415,77,0.000957,-0.0894714,0.025452718,1
73.82151805,18.5031567,1.09,207.90295,18-46-21,0.41378728,0.09220028,-0.3314157,77,0.01806125,-0.0717563,-0.00814487,1
73.82151805,18.5031567,1.09,207.90295,18-46-21,-0.07754779,0.17352772,-0.14853698,77,0.055934895,-0.052208617,-0.017918713,1
73.82151805,18.5031567,1.09,207.90295,18-46-21,-0.15350524,0.01830864,-0.697569,76,0.06570874,-0.05037602,-0.010588331,1
73.82151805,18.5031567,1.09,207.90295,18-46-21,-0.17294484,0.29115582,0.5018857,76,0.043106724,-0.07236717,0.014457144,1
73.82151662,18.50320116,0.934,212.01607,18-46-21,0.35893577,-0.25406456,0.5901912,76,0.042495858,-0.09130399,0.013846278,1
73.82151662,18.50320116,0.934,212.01607,18-46-21,0.3643189,-0.11201477,-0.21935701,76,0.030889422,-0.08397361,0.010791954,1
73.82151662,18.50320116,0.934,212.01607,18-46-22,-0.17482567,-0.13025379,-0.7033663,76,0.026613362,-0.07053457,0.001018107,1
73.82151662,18.50320116,0.934,212.01607,18-46-22,0.1861816,0.29801846,-0.43423724,76,0.002789618,-0.09985611,0.004072435,1
73.82151662,18.50320116,0.934,212.01607,18-46-22,0.29012597,0.20763111,-1.7952533,76,0.022948172,-0.13101023,0.005905032,1
73.82151662,18.50320116,0.934,212.01607,18-46-22,0.6896075,0.12615395,0.14459431,76,-0.043025274,-0.124901585,0.07310021,1
73.82151662,18.50320116,0.934,212.01607,18-46-22,0.256186,0.10423851,-2.4860578,76,0.00645481,-0.07114544,0.014457144,1
73.82151662,18.50320116,0.934,212.01607,18-46-22,1.0396888,1.2855196,0.8915391,76,0.06021095,-0.078475825,-0.013642658,1
73.82151662,18.50320116,0.934,212.01607,18-46-22,0.31984147,0.00582695,-0.9548651,77,-0.097392276,-0.1316211,-0.03868813,1
73.82151662,18.50320116,0.934,212.01607,18-46-22,0.74988574,0.86720085,-0.560225,77,-0.030197106,-0.10413216,0.02667445,1
73.82151998,18.50323854,0.93,215.23106,18-46-22,0.239451,1.3059998,-1.2518108,77,-0.10350093,-0.12551245,0.098756544,1
73.82151998,18.50323854,0.93,215.23106,18-46-22,1.7870255,1.8018465,4.6512384,77,0.23430754,-0.07908668,-0.10588331,1
73.82151998,18.50323854,0.93,215.23106,18-46-23,0.3796569,0.77741814,2.0373476,77,0.27095947,-0.06625852,-0.029525153,1
73.82151998,18.50323854,0.93,215.23106,18-46-23,-0.077535525,0.6049309,-1.2997293,78,0.17077756,-0.12429071,-0.005090542,1
73.82151998,18.50323854,0.93,215.23106,18-46-23,-1.7030919,-0.448781,3.5090551,78,-0.011871147,-0.19881627,-0.11565715,1
73.82151998,18.50323854,0.93,215.23106,18-46-23,3.879456,-1.4879436,9.882672,79,0.36442184,-0.28189394,-0.14803301,1
73.82151998,18.50323854,0.93,215.23106,18-46-23,-0.94327164,1.6904163,-1.2446948,80,0.16589065,-0.16521868,0.0187332,1
73.82151998,18.50323854,0.93,215.23106,18-46-23,0.07243657,-1.118289,-0.33916998,80,-0.2672128,-0.116349466,-0.005090542,1
73.82151998,18.50323854,0.93,215.23106,18-46-23,-1.8136175,2.1790667,0.95240605,81,-0.08089892,-0.17132735,-0.052738033,1
73.82151327,18.5032789,0.944,219.33781,18-46-23,0.5475018,-1.0604668,1.5796932,79,0.015617789,-0.26601145,0.035837427,1
73.82151327,18.5032789,0.944,219.33781,18-46-23,-1.3435249,1.7435465,-1.942635,78,-0.21528926,-0.24402031,-0.120544076,1
73.82151327,18.5032789,0.944,219.33781,18-46-23,0.82980925,0.16865253,-1.896424,77,0.16161458,-0.25501588,-0.04907284,1
73.82151327,18.5032789,0.944,219.33781,18-46-24,-2.1907623,1.4410343,-0.6037656,77,-0.12976813,-0.25868106,-0.05701409,1
73.82151327,18.5032789,0.944,219.33781,18-46-24,0.83533096,1.0902758,-2.698843,76,-0.008816821,-0.13039938,-0.09488773,1
73.82151327,18.5032789,0.944,219.33781,18-46-24,-0.3211942,-0.5132122,1.8690637,77,0.000957,-0.33992615,0.074932806,1
73.82151327,18.5032789,0.944,219.33781,18-46-24,-1.3605139,0.75110817,1.2731541,77,-0.12549208,-0.20492494,-0.09122254,1
73.82151327,18.5032789,0.944,219.33781,18-46-24,1.446547,-0.40938663,-0.98390293,75,0.14084516,-0.19331849,-0.04540765,1
73.82151327,18.5032789,0.944,219.33781,18-46-24,-0.36921093,-1.0890436,1.2617595,75,0.20742948,-0.35519776,0.048665598,1
73.82151327,18.5032789,0.944,219.33781,18-46-24,1.2135768,0.2996788,-0.82968795,74,-0.014314608,-0.2751744,-0.013031792,1
73.82151327,18.5032789,0.944,219.33781,18-46-24,1.1734195,0.31929684,-2.7043262,74,0.28928542,-0.3387044,0.001018107,1
73.82149877,18.50332278,1.042,224.23668,18-46-24,0.6340116,-0.82244873,1.7295343,74,0.07853691,-0.3619173,0.049276464,1
73.82149877,18.50332278,1.042,224.23668,18-46-24,0.048171043,0.45540714,1.6930671,74,-0.104722664,-0.37108028,0.019344065,1
73.82149877,18.50332278,1.042,224.23668,18-46-25,-0.18559623,1.0343237,-3.3297076,73,-0.30203214,-0.34114787,0.016900606,1
73.82149877,18.50332278,1.042,224.23668,18-46-25,0.85017014,0.92553043,0.3718775,72,0.09014335,-0.33503923,-0.03502294,1
73.82149877,18.50332278,1.042,224.23668,18-46-25,1.1961312,-0.9833183,1.1734126,73,0.08953249,-0.43277764,0.035837427,1
73.82149877,18.50332278,1.042,224.23668,18-46-25,0.025242269,-0.15956306,2.8592432,72,0.12557353,-0.38940623,0.02667445,1
73.82149877,18.50332278,1.042,224.23668,18-46-25,0.1337842,0.29468727,-2.135677,70,-0.026531912,-0.37108028,-0.00814487,1
73.82149877,18.50332278,1.042,224.23668,18-46-25,-0.6330498,0.8295126,-2.6942291,68,-0.16275486,-0.37779978,0.062104635,1
73.82149877,18.50332278,1.042,224.23668,18-46-25,0.5776084,0.53386116,-0.47581077,71,0.1860492,-0.39979094,0.040113486,1
73.82149877,18.50332278,1.042,224.23668,18-46-25,1.4060745,-0.48418236,2.2304144,74,0.098695464,-0.3387044,-0.04785111,1
73.82148611,18.50336876,0.966,229.23352,18-46-25,-0.031596065,-1.353385,0.71455693,71,0.23003149,-0.37535632,0.001018107,1
73.82148611,18.50336876,0.966,229.23352,18-46-25,-0.31819445,-1.6547756,0.35964465,70,0.04371759,-0.4144517,0.033393964,1
73.82148611,18.50336876,0.966,229.23352,18-46-26,0.5322659,-1.1739511,1.9507366,68,-0.08945103,-0.35092172,0.029117912,1
73.82148611,18.50336876,0.966,229.23352,18-46-26,-0.76453304,-0.2837696,-0.669139,69,0.023559038,-0.33442834,0.006515894,1
73.82148611,18.50336876,0.966,229.23352,18-46-26,-1.4726708,0.5527868,-2.53539,71,-0.15725708,-0.29777643,0.04988733,1
73.82148611,18.50336876,0.966,229.23352,18-46-26,-1.622761,0.10621071,-2.5858994,74,-0.26110417,-0.27822876,0.08165232,1
73.82148611,18.50336876,0.966,229.23352,18-46-26,0.043415964,-0.14023876,2.8271296,73,-0.10350093,-0.23302472,0.041946083,1
73.82148611,18.50336876,0.966,229.23352,18-46-26,-0.45601386,-0.1907816,1.4126625,70,-0.07540113,-0.23058125,0.06638069,1
73.82148611,18.50336876,0.966,229.23352,18-46-26,-0.7885116,0.81928825,0.1324147,69,-0.06807075,-0.16644043,0.046833,1
73.82148611,18.50336876,0.966,229.23352,18-46-26,-0.7841136,0.36814594,0.23132807,70,0.013174328,-0.06992371,-0.025859963,1
73.82147371,18.50341423,1.028,234.1807,18-46-26,-0.61671096,0.38428974,0.45423025,68,0.045550186,-0.100466974,0.038891755,1
73.82147371,18.50341423,1.028,234.1807,18-46-26,0.39315936,-0.042266846,0.907835,68,0.07609345,-0.054652076,0.019954931,1
73.82147371,18.50341423,1.028,234.1807,18-46-27,-0.058476448,0.711895,-0.6718594,68,0.072428256,-0.04243477,-0.005090542,1
73.82147371,18.50341423,1.028,234.1807,18-46-27,-0.1813786,-0.021874428,-0.75867844,68,-0.005762494,-0.013724105,0.011402819,1
73.82147371,18.50341423,1.028,234.1807,18-46-27,1.0306892,0.2522335,0.03519523,67,-0.071125075,0.010099638,-0.006923139,1
73.82147371,18.50341423,1.028,234.1807,18-46-27,0.45351127,-0.003054619,-0.22948503,67,0.046771914,-0.03388266,0.06638069,1
73.82147371,18.50341423,1.028,234.1807,18-46-27,-0.51963526,0.33277416,-0.66580784,67,0.015617789,0.019873483,-0.025249097,1
73.82147371,18.50341423,1.028,234.1807,18-46-27,0.40593353,-0.2551689,0.48284727,67,-0.08028805,-0.030217469,0.028507046,1
73.82147371,18.50341423,1.028,234.1807,18-46-27,-0.025213934,-0.13201809,-0.45309508,67,-0.06074037,-0.028384872,0.024230987,1
73.82146491,18.5034675,1.188,239.67024,18-46-27,-0.124628544,0.67673016,-0.49013853,68,-0.0479122,-0.011280645,0.000407,1
73.82146491,18.5034675,1.188,239.67024,18-46-27,-0.1082713,-0.03848648,0.73651516,74,-0.048523065,-0.036936983,0.030950509,1
73.82146491,18.5034675,1.188,239.67024,18-46-27,-0.42355072,0.58719826,-0.46109188,75,0.106025845,-0.02349795,-0.056403223,1
73.82146491,18.5034675,1.188,239.67024,18-46-28,0.20220509,-0.09449959,0.8277888,74,-0.061351236,-0.056484673,0.004683301,1
73.82146491,18.5034675,1.188,239.67024,18-46-28,0.27713266,0.36664772,-0.7535788,73,0.039441533,-0.07481063,0.005905032,1
73.82146491,18.5034675,1.188,239.67024,18-46-28,-0.048235923,0.18709373,0.7749349,73,-0.010649418,-0.07114544,-0.014864387,1
73.82146491,18.5034675,1.188,239.67024,18-46-28,-0.4332371,-0.042057037,-0.5344211,77,0.06570874,-0.11085168,0.029728778,1
73.82146491,18.5034675,1.188,239.67024,18-46-28,0.078983516,0.24353123,-1.1748253,77,0.045550186,-0.07603236,-0.005701408,1
73.82146491,18.5034675,1.188,239.67024,18-46-28,-0.66459,0.025416374,1.5031697,77,-0.044247005,-0.041213043,-0.043575056,1
73.82146491,18.5034675,1.188,239.67024,18-46-28,-1.3325722,-0.26351547,-0.41332245,75,-0.058296908,-0.068701975,0.033393964,1
73.82146491,18.5034675,1.188,239.67024,18-46-28,0.5364692,0.9444456,-0.64239275,71,-0.06807075,-0.09680178,-0.003868815,1
73.82145359,18.50351615,1.158,244.88419,18-46-28,2.598798,1.3166113,-0.49101564,70,0.012563462,-0.06198246,-0.11626802,1
73.82145359,18.50351615,1.158,244.88419,18-46-28,-1.0106434,-0.09791565,-2.2926273,70,0.051047973,-0.13772976,0.014457144,1
73.82145359,18.50351615,1.158,244.88419,18-46-29,-1.4038029,0.73862076,-1.1196412,71,0.008287406,-0.18720984,0.06699155,1
73.82145359,18.50351615,1.158,244.88419,18-46-29,0.7745783,1.5847616,0.8577309,72,0.024169903,-0.12123639,0.051719926,1
73.82145359,18.50351615,1.158,244.88419,18-46-29,-0.27031216,0.5741215,1.170835,71,0.15489507,-0.07053457,-0.009977466,1
73.82145359,18.50351615,1.158,244.88419,18-46-29,-0.13034225,0.23382759,-1.5583693,69,0.19093612,-0.09985611,0.062104635,1
73.82145359,18.50351615,1.158,244.88419,18-46-29,2.0402246,-0.12522984,-1.3783765,69,0.15733853,-0.13039938,0.14090624,1
73.82145359,18.50351615,1.158,244.88419,18-46-29,-0.6366306,-1.7278919,0.9204782,69,-0.1725287,-0.010058914,-0.06800966,1
73.82145359,18.50351615,1.158,244.88419,18-46-29,-1.460089,0.5329113,-0.18628657,69,-0.2006285,-0.022276219,-0.03502294,1
73.8214427,18.5035628,1.116,249.89742,18-46-29,0.3950123,0.44147587,0.08499563,69,-0.15481362,-0.014945837,-0.024638232,1
73.8214427,18.5035628,1.116,249.89742,18-46-29,-0.1654606,1.2095909,-2.0570416,69,0.002789618,-0.043656502,-0.03624467,1
73.8214427,18.5035628,1.116,249.89742,18-46-29,-0.708302,0.95723534,-2.0335422,69,0.094419405,-0.06442592,-0.012420926,1
73.8214427,18.5035628,1.116,249.89742,18-46-30,-0.04398614,0.538394,-0.3790411,69,0.12068661,-0.0754215,-0.028303422,1
73.8214427,18.5035628,1.116,249.89742,18-46-30,0.17729193,0.06463909,-0.8093492,69,0.042495858,-0.09496918,0.0327831,1
73.8214427,18.5035628,1.116,249.89742,18-46-30,0.1469453,-0.25026798,-0.554682,70,0.015006924,-0.07786496,-0.031968616,1
73.8214427,18.5035628,1.116,249.89742,18-46-30,-0.085208684,0.22570133,0.8056778,71,0.06937393,-0.06442592,0.0187332,1
73.8214427,18.5035628,1.116,249.89742,18-46-30,-0.4378826,-0.23019123,0.37624064,68,-0.015536339,-0.08702794,0.015678875,1
73.8214427,18.5035628,1.116,249.89742,18-46-30,-0.3509227,-0.18981838,0.7346431,67,0.071206525,-0.027774006,-0.03807727,1
73.8214427,18.5035628,1.116,249.89742,18-46-30,-0.61581516,-1.3088694,-2.526131,69,-0.1425963,-0.07664323,0.05416338,1
73.8214427,18.5035628,1.116,249.89742,18-46-30,-0.94280636,-0.61188316,0.3510679,70,-0.32829934,-0.10291043,0.08959357,1
73.82142903,18.50361255,1.21399994,255.366,18-46-30,0.93289906,1.9026117,-1.4600847,70,-0.2146784,-0.15483397,0.06576982,1
73.82142903,18.50361255,1.21399994,255.366,18-46-30,-2.885531,0.47538376,-3.819377,69,-0.2678237,0.008267043,-0.05029457,1
73.82142903,18.50361255,1.21399994,255.366,18-46-31,-3.4104574,1.5201998,-4.952339,69,-0.058907773,-0.02471968,-0.10221812,1
73.82142903,18.50361255,1.21399994,255.366,18-46-31,-0.6094418,0.5775299,-0.7174599,70,-0.2006285,-0.04243477,0.005294167,1
73.82142903,18.50361255,1.21399994,255.366,18-46-31,-0.6828203,2.5368004,-2.2188132,70,-0.009427686,-0.123679854,-0.000204,1
73.82142903,18.50361255,1.21399994,255.366,18-46-31,-0.37132865,0.9831314,-1.1956475,70,0.09319768,-0.002117666,-0.069842264,1
73.82142903,18.50361255,1.21399994,255.366,18-46-31,0.07960282,0.22029686,0.5586996,70,0.08525643,-0.004561127,-0.0234165,1
73.82142903,18.50361255,1.21399994,255.366,18-46-31,0.5537021,0.8514404,0.33944988,69,0.05165884,0.07485136,-0.04296419,1
73.82142903,18.50361255,1.21399994,255.366,18-46-31,0.32073915,-0.005753517,-0.8425741,69,-0.010038552,0.003990986,-0.050905436,1
73.82142903,18.50361255,1.21399994,255.366,18-46-31,-0.9360548,1.2299271,-0.65734816,68,0.014396058,0.017430022,-0.048461977,1
73.82140749,18.50366833,1.284,261.84073,18-46-31,0.25791532,0.13808823,0.22565973,70,-0.014314608,-0.04671083,-0.003257949,1
73.82140749,18.50366833,1.284,261.84073,18-46-31,0.4775164,0.7102089,0.7701564,71,0.024169903,-0.03999131,-0.001425352,1
73.82140749,18.50366833,1.284,261.84073,18-46-32,0.16747546,0.22823048,0.9969007,71,0.092586815,0.024760405,-0.03624467,1
73.82140749,18.50366833,1.284,261.84073,18-46-32,-0.20808716,-0.19148064,2.8986897,70,0.13779084,0.015597426,0.0187332,1
73.82140749,18.50366833,1.284,261.84073,18-46-32,-0.5262366,-0.76164246,1.0033768,72,0.010730867,0.03514511,-0.027692558,1
73.82140749,18.50366833,1.284,261.84073,18-46-32,0.1474778,-0.82595825,1.0388656,71,-0.000876,0.021095213,-0.042353325,1
73.82140749,18.50366833,1.284,261.84073,18-46-32,0.3126257,-0.04932022,1.3704449,71,-0.097392276,0.025982136,-0.06312274,1
73.82140749,18.50366833,1.284,261.84073,18-46-32,0.69434685,0.57500744,-0.8302043,73,-0.24583253,-0.047321696,0.002239838,1
73.82140749,18.50366833,1.284,261.84073,18-46-32,1.6105435,-0.12461853,0.171945,70,-0.06807075,-0.030217469,0.010791954,1
73.82138872,18.50372457,1.31399994,268.21838,18-46-32,1.8586587,0.40213013,0.92113316,70,-0.12182689,-0.05404121,0.10425433,1
73.82138872,18.50372457,1.31399994,268.21838,18-46-32,-0.0922472,1.0680523,-1.6372724,70,0.09380855,-0.032050062,0.05416338,1
73.82138872,18.50372457,1.31399994,268.21838,18-46-32,1.3037953,1.3297749,-1.2503295,72,0.020504711,-0.13223195,0.081041455,1
73.82138872,18.50372457,1.31399994,268.21838,18-46-33,-1.1405067,1.4567766,-1.6371887,73,0.16894497,-0.055262942,0.030950509,1
73.82138872,18.50372457,1.31399994,268.21838,18-46-33,-1.9831582,1.8806524,-3.1997223,74,0.34976107,0.03453425,-0.10405071,1
73.82138872,18.50372457,1.31399994,268.21838,18-46-33,-1.2650299,-0.5084076,-1.6877681,74,0.13779084,0.018651752,-0.04662938,1
73.82138872,18.50372457,1.31399994,268.21838,18-46-33,-1.7345992,0.70252705,5.2511444,75,0.3369329,0.0687427,0.06149377,1
73.82138872,18.50372457,1.31399994,268.21838,18-46-33,-3.1675956,-0.54642487,0.9801409,74,0.23919447,0.01132137,0.025452718,1
73.82138872,18.50372457,1.31399994,268.21838,18-46-33,-1.9442575,0.95813274,-0.17743397,74,0.3124983,0.010710504,-0.0796161,1
73.82138872,18.50372457,1.31399994,268.21838,18-46-33,-1.0106617,-1.0132275,1.4943174,73,0.2880637,-0.17560339,0.09936742,1
73.82138872,18.50372457,1.31399994,268.21838,18-46-33,0.19564064,-1.3607216,-0.12669396,73,0.13412565,-0.016167566,-0.046018515,1
73.82137648,18.50378073,1.274,274.25323,18-46-33,-3.2602189,-3.3610134,2.4995737,72,0.3583132,-0.11879293,0.005294167,1
73.82137648,18.50378073,1.274,274.25323,18-46-33,-2.3891,-2.5308976,0.21122193,71,-0.0863967,-0.09496918,0.15190181,1
73.82137648,18.50378073,1.274,274.25323,18-46-34,1.5636107,-1.6703587,-7.162739,71,-0.588528,0.019873483,0.2581924,1
73.82137648,18.50378073,1.274,274.25323,18-46-34,2.0392866,2.4571018,-7.670261,74,-0.93672115,-0.074199766,0.08959357,1
73.82137648,18.50378073,1.274,274.25323,18-46-34,0.9352014,2.9622965,-5.2373633,74,-0.49384382,-0.065647654,-0.040520728,1
73.82137648,18.50378073,1.274,274.25323,18-46-34,0.5410811,1.4568844,-1.918435,73,-0.41198787,-0.026552275,-0.061290145,1
73.82137648,18.50378073,1.274,274.25323,18-46-34,2.3212364,2.7282534,-6.9967756,73,-0.46818748,0.25322402,-0.17918715,1
73.82137648,18.50378073,1.274,274.25323,18-46-34,1.4557655,0.8562679,-3.8880434,71,-0.3270776,0.14632258,-0.1657481,1
73.82137648,18.50378073,1.274,274.25323,18-46-34,-0.6246572,3.2374544,-3.5819936,72,-0.1584788,0.01132137,-0.16208291,1
73.82137648,18.50378073,1.274,274.25323,18-46-34,-2.0610216,1.5409002,-3.0497203,72,-0.21223494,0.013153965,-0.018529579,1
73.8213567,18.50383672,1.336,280.67575,18-46-34,-1.4566107,1.4465408,-0.69613636,72,-0.050355658,0.06324492,-0.019140445,1
73.8213567,18.50383672,1.336,280.67575,18-46-34,0.44045538,1.4256372,-0.91206276,71,-0.17008524,0.07607309,-0.027081693,1
73.8213567,18.50383672,1.336,280.67575,18-46-35,-0.46075845,0.15898037,-0.26065636,72,-0.101668335,0.07668395,-0.017918713,1
73.8213567,18.50383672,1.336,280.67575,18-46-35,0.6744582,0.02719307,-2.1546767,73,-0.105944395,0.010099638,0.029728778,1
73.8213567,18.50383672,1.336,280.67575,18-46-35,-0.15624562,0.15207005,0.27614284,73,-0.22017619,-0.077254094,0.07310021,1
73.8213567,18.50383672,1.336,280.67575,18-46-35,-0.37777942,0.659173,-0.40990758,74,-0.18291341,-0.025330545,0.06699155,1
73.8213567,18.50383672,1.336,280.67575,18-46-35,-1.7179546,-0.2468996,-0.004745483,76,-0.18230255,-0.13650802,0.16778433,1
73.8213567,18.50383672,1.336,280.67575,18-46-35,-0.3821718,0.34986687,0.955944,78,-0.02958624,-0.10107783,0.08043059,1
73.8213567,18.50383672,1.336,280.67575,18-46-35,-2.1367972,0.8255291,0.68334234,78,-0.02958624,0.014986561,0.001018107,1
73.8213567,18.50383672,1.336,280.67575,18-46-35,-2.8451145,1.8031225,-0.33433378,78,0.20437515,0.10234029,-0.082670435,1
73.82134027,18.50390252,1.538,287.88052,18-46-35,1.0085435,0.2924862,1.407319,78,0.20070995,0.056525398,-0.09122254,1
73.82134027,18.50390252,1.538,287.88052,18-46-35,-1.3486557,-1.6260195,1.013644,78,0.1384017,-0.07603236,-0.033190347,1
73.82134027,18.50390252,1.538,287.88052,18-46-36,-0.27393678,-0.14086914,-1.1537164,78,-0.006984226,0.049195014,-0.04296419,1
73.82134027,18.50390252,1.538,287.88052,18-46-36,-1.2498662,0.61858654,-2.841547,77,-0.025310185,-0.025941411,0.017511472,1
73.82134027,18.50390252,1.538,287.88052,18-46-36,0.48787558,1.1070786,-3.8808286,75,-0.12488121,-0.039380446,0.032172233,1
73.82134027,18.50390252,1.538,287.88052,18-46-36,-0.43077335,0.6212883,1.9629883,73,0.0400524,-0.04243477,0.043167807,1
73.82134027,18.50390252,1.538,287.88052,18-46-36,-0.20383915,0.13537216,-2.534238,72,-0.1725287,0.09928597,-0.009366602,1
73.82134027,18.50390252,1.538,287.88052,18-46-36,1.0137355,0.32787323,1.8869834,72,0.13107131,0.054081935,0.046222135,1
73.82134027,18.50390252,1.538,287.88052,18-46-36,1.3100811,0.43088055,-0.101252556,72,0.16405804,0.002769256,-0.061290145,1
73.82134027,18.50390252,1.538,287.88052,18-46-36,-0.45578212,0.15243435,-1.596015,72,0.21170554,-0.001506801,-0.07106399,1
73.8213173,18.50397192,1.588,295.78024,18-46-36,1.5077357,-0.36106205,-1.1485512,71,0.12435181,-0.06320419,0.012624547,1
73.8213173,18.50397192,1.588,295.78024,18-46-36,1.0889406,0.6389656,-0.5059569,70,0.015617789,-0.015556702,-0.03380121,1
73.8213173,18.50397192,1.588,295.78024,18-46-37,0.32501578,0.37857246,1.0373194,69,0.080980375,0.008267043,-0.08694649,1
73.8213173,18.50397192,1.588,295.78024,18-46-37,-2.496683,1.9661341,-0.92497134,70,0.013785193,0.14204654,-0.25615615,1
73.8213173,18.50397192,1.588,295.78024,18-46-37,-1.8836565,0.6821947,1.0470257,70,0.054102298,0.14449,-0.23111069,1
73.8213173,18.50397192,1.588,295.78024,18-46-37,-1.0735068,0.16769028,-1.0630422,69,0.049826242,0.049195014,-0.012420926,1
73.8213173,18.50397192,1.588,295.78024,18-46-37,-1.9549596,0.18445587,-1.291708,70,-0.1041118,0.07668395,-0.024638232,1
73.8213173,18.50397192,1.588,295.78024,18-46-37,-0.4519801,0.5581379,0.9315313,70,-0.1041118,0.06507751,0.07737626,1
73.8213173,18.50397192,1.588,295.78024,18-46-37,-0.5406231,-0.101955414,0.40262628,70,-0.14503977,0.024760405,-0.021583905,1
73.8213173,18.50397192,1.588,295.78024,18-46-37,-1.1647838,0.14817429,0.45861232,70,-0.08761843,0.018040888,-0.027692558,1
73.82128637,18.50403742,1.35999994,303.70947,18-46-37,-0.055450376,-0.18226528,3.2979002,70,0.04127413,0.08584693,-0.12787446,1
73.82128637,18.50403742,1.35999994,303.70947,18-46-37,-0.24859832,0.3526764,1.0951349,70,0.06021095,0.0864578,-0.08022697,1
73.82128637,18.50403742,1.35999994,303.70947,18-46-38,1.3391329,0.63472366,2.942922,71,-0.28187358,-0.11268427,0.0627155,1
73.82128637,18.50403742,1.35999994,303.70947,18-46-38,0.85395235,-0.5340071,0.12999386,71,-0.24583253,-0.07603236,0.08043059,1
73.82128637,18.50403742,1.35999994,303.70947,18-46-38,-1.2486913,-0.21754456,0.25586832,71,0.03638721,0.028425597,0.011402819,1
73.82128637,18.50403742,1.35999994,303.70947,18-46-38,0.40116116,2.367566,-0.4173866,70,-0.010649418,0.014986561,-0.013642658,1
73.82128637,18.50403742,1.35999994,303.70947,18-46-38,-0.46856678,0.9797535,0.14517683,69,0.1384017,0.096842505,-0.125431,1
73.82128637,18.50403742,1.35999994,303.70947,18-46-38,-0.96620476,0.32075977,-1.7595882,69,0.061432682,-0.001506801,-0.009977466,1
73.82128637,18.50403742,1.35999994,303.70947,18-46-38,0.9016487,-0.40463448,-0.20750353,70,0.044328455,-0.014945837,-0.000204,1
73.82126014,18.50408491,1.11399994,309.65024,18-46-38,0.09251345,0.61485004,-2.8501062,71,0.31616348,0.019262617,-0.044796783,1
73.82126014,18.50408491,1.11399994,309.65024,18-46-38,0.22163755,0.5057316,-6.508309,72,0.46643636,0.07729482,-0.09916379,1
73.82126014,18.50408491,1.11399994,309.65024,18-46-38,0.17739889,-0.53351307,-0.43252754,72,-0.13343333,0.067520976,-0.08205956,1
73.82126014,18.50408491,1.11399994,309.65024,18-46-39,0.88795185,-0.43445587,5.231684,72,0.16405804,-0.0754215,0.012624547,1
73.82126014,18.50408491,1.11399994,309.65024,18-46-39,1.57996,0.3724079,0.7898203,72,-0.071125075,-0.043656502,0.04255695,1
73.82126014,18.50408491,1.11399994,309.65024,18-46-39,1.1637957,2.1851683,-1.463544,72,0.25874215,-0.005171993,0.010181088,1
73.82126014,18.50408491,1.11399994,309.65024,18-46-39,-0.4218945,1.3232069,-0.45212853,72,0.118854016,0.024149539,-0.056403223,1
73.82126014,18.50408491,1.11399994,309.65024,18-46-39,0.15453911,-1.0056973,0.4142428,72,0.17627536,-0.061371595,-0.001425352,1
73.82126014,18.50408491,1.11399994,309.65024,18-46-39,1.5984354,-0.9711056,1.1819501,72,-0.002708169,-0.074199766,0.07432194,1
73.82126014,18.50408491,1.11399994,309.65024,18-46-39,0.75906014,-1.4722929,1.8595023,72,0.09075422,-0.025330545,-0.1095485,1
73.8212453,18.50411135,0.642,312.97015,18-46-39,-0.9659619,-0.14198971,0.34624386,72,-0.010649418,-0.036936983,0.04438954,1
73.8212453,18.50411135,0.642,312.97015,18-46-39,-1.0692028,0.15000916,-0.3538134,72,-0.16642006,-0.007615454,0.009570222,1
73.8212453,18.50411135,0.642,312.97015,18-46-39,1.5380504,0.4124527,2.117899,71,-0.12610294,-0.02471968,0.08898271,1
73.8212453,18.50411135,0.642,312.97015,18-46-40,-0.77914286,0.6446552,2.3753717,71,0.11518883,0.011932234,0.00712676,1
73.8212453,18.50411135,0.642,312.97015,18-46-40,-2.2457242,1.6400423,-2.0308619,72,-0.117550835,-0.12978849,0.18611029,1
73.8212453,18.50411135,0.642,312.97015,18-46-40,-0.7406725,-0.3509369,-2.6050756,72,-0.15237015,-0.09252572,0.09142617,1
73.8212453,18.50411135,0.642,312.97015,18-46-40,1.9602073,-0.17395878,1.8181794,72,-0.07356854,-0.054652076,0.06393723,1
73.8212453,18.50411135,0.642,312.97015,18-46-40,2.26925,-0.16667747,1.3729134,72,-0.03997095,-0.012502376,-0.005090542,1
73.8212453,18.50411135,0.642,312.97015,18-46-40,0.6599649,0.3831234,-0.9122344,72,-0.13465506,0.033923384,0.0627155,1
73.8212453,18.50411135,0.642,312.97015,18-46-40,-1.1020901,0.9055004,-0.7610408,72,0.054102298,-0.010058914,0.040724352,1
73.82123969,18.50410972,0.1,313.09497,18-46-40,0.9754376,1.130311,-2.602688,72,0.095641136,0.03942117,-0.002036218,1
73.82123969,18.50410972,0.1,313.09497,18-46-40,-1.2284999,0.17630386,1.9099495,72,-0.09250536,0.07790568,-0.111991964,1
73.82123969,18.50410972,0.1,313.09497,18-46-40,0.06495795,-1.3138695,1.3980194,72,0.16344719,0.044308092,-0.0234165,1
73.82123969,18.50410972,0.1,313.09497,18-46-41,0.2131652,-0.5695791,1.1594656,72,0.05898922,0.0705753,-0.10832677,1
73.82123969,18.50410972,0.1,313.09497,18-46-41,-0.9224156,-0.31579018,0.6476617,72,-0.071125075,0.14204654,-0.15780686,1
73.82123969,18.50410972,0.1,313.09497,18-46-41,0.54869306,-0.3260126,3.2716506,72,0.076704316,0.06507751,-0.043575056,1
73.82123969,18.50410972,0.1,313.09497,18-46-41,-0.64997816,0.20923138,-0.951651,72,0.032722015,0.027203865,-0.029525153,1
73.82123969,18.50410972,0.1,313.09497,18-46-41,0.478333,1.6489935,1.4601085,72,-0.14198545,0.112725,0.04988733,1
73.82123969,18.50410972,0.1,313.09497,18-46-41,-1.105032,1.0456657,-2.6925735,72,-0.027142778,0.13960308,-0.049683705,1
73.82123969,18.50410972,0.1,313.09497,18-46-41,-1.0395098,0.41771507,-1.887335,72,0.04860451,-0.041213043,0.10242174,1
73.8212396,18.50410695,0,312.83054,18-46-41,-1.0669436,-0.17182541,2.6279213,72,0.12984958,0.03697771,0.04561127,1
73.8212396,18.50410695,0,312.83054,18-46-41,2.051175,-0.79159546,0.99026513,72,0.2123164,0.068131834,-0.120544076,1
73.8212396,18.50410695,0,312.83054,18-46-41,0.2784867,-0.07592392,-0.03555444,72,0.1701667,0.016819157,-0.07534005,1
73.8212396,18.50410695,0,312.83054,18-46-42,-0.8417723,0.24211025,-0.6950439,72,0.123130076,-0.038158715,-0.006312273,1
73.8212396,18.50410695,0,312.83054,18-46-42,0.2783283,-1.3807716,0.37690294,72,-0.07295767,-0.028384872,0.08165232,1
73.8212396,18.50410695,0,312.83054,18-46-42,1.0690455,-1.2283707,3.6301208,72,0.16344719,0.12982923,-0.028303422,1
73.8212396,18.50410695,0,312.83054,18-46-42,-1.0310378,0.19309044,0.41883773,72,-0.09189449,0.072407894,-0.039909862,1
73.8212396,18.50410695,0,312.83054,18-46-42,0.13846943,0.5758085,-2.4808764,72,-0.2323935,0.03453425,0.009570222,1
73.8212396,18.50410695,0,312.83054,18-46-42,1.0374521,1.4771652,0.036232173,72,-0.19513072,0.054081935,-0.024027366,1
73.8212396,18.50410695,0,312.83054,18-46-42,2.8578491,0.43124962,-0.8325267,72,-0.031418838,0.11761192,-0.11810061,0
73.82123197,18.50409723,0.038,312.275,18-46-42,0.6287898,0.406044,0.44559157,72,-0.14748323,0.009488774,-0.012420926,0
73.82123197,18.50409723,0.038,312.275,18-46-42,0.92755,1.6888037,1.3834239,72,-0.065627284,-0.13589716,0.09570222,0
73.82123197,18.50409723,0.038,312.275,18-46-42,1.0351582,0.40404034,1.2838982,72,0.063876145,-0.056484673,0.11463905,0
73.82123197,18.50409723,0.038,312.275,18-46-43,-0.012076512,0.29861355,-1.9331939,72,-0.02836451,-0.07114544,0.12074769,0
73.82123197,18.50409723,0.038,312.275,18-46-43,0.44243807,0.29354954,-1.4880735,72,-0.011260281,-0.02105449,0.05721771,0
73.82123197,18.50409723,0.038,312.275,18-46-43,-1.8158007,0.112360954,-1.8571876,72,0.042495858,0.021095213,0.050498195,0
73.82123197,18.50409723,0.038,312.275,18-46-43,0.5743404,0.41363525,0.8138732,72,0.022337306,0.044308092,-0.011810061,0
73.82123197,18.50409723,0.038,312.275,18-46-43,1.4092904,-0.269989,1.4515353,72,0.061432682,-0.019832758,-0.018529579,0
73.82123197,18.50409723,0.038,312.275,18-46-43,0.86123544,0.13504219,0.838333,72,-0.021034125,-0.115127735,0.085317515,0
73.82123197,18.50409723,0.038,312.275,18-46-43,-0.22744887,0.4383936,0.68676734,72,0.07059566,-0.041213043,-0.009977466,0
73.82122862,18.5040847,0,311.2332,18-46-43,-0.078434065,-0.03100872,-0.49777418,72,-0.008816821,0.042475495,-0.019140445,0
73.82122862,18.5040847,0,311.2332,18-46-43,-0.22977966,-0.08635616,-0.91101974,72,-0.02836451,-0.013724105,0.007737625,0
73.82122862,18.5040847,0,311.2332,18-46-43,-0.2205781,0.037276268,0.10109568,72,-0.062572956,0.011932234,-0.02097304,0
73.82122862,18.5040847,0,311.2332,18-46-44,-0.08220395,0.8978863,1.8433359,72,-0.1285464,-0.008837184,-0.01975131,0
73.82122862,18.5040847,0,311.2332,18-46-44,-0.2637699,0.7675991,0.9032684,72,0.15428421,0.038810305,-0.03807727,0
73.82122862,18.5040847,0,311.2332,18-46-44,-0.31003803,0.07645416,1.0465482,72,0.14573209,0.06507751,-0.055181496,0
73.82122862,18.5040847,0,311.2332,18-46-44,-0.13804507,-0.19186687,-0.39439124,72,0.096252,-0.000285,-0.039298996,0
73.82122862,18.5040847,0,311.2332,18-46-44,0.4833856,-0.5144844,0.3463067,72,-0.018590666,-0.06625852,0.024230987,0
73.82122862,18.5040847,0,311.2332,18-46-44,-0.6680179,-0.4428997,-0.3457751,72,-0.014925473,-0.02349795,0.053552523,0
73.82122862,18.5040847,0,311.2332,18-46-44,0.557322,0.05656433,0.30198243,72,-0.053409982,0.019262617,-0.005701408,0
73.82122862,18.5040847,0,311.2332,18-46-44,-1.957368,-0.03560829,-0.70042205,72,-0.101668335,-0.006393723,0.04255695,0
73.82122862,18.5040847,0,311.2332,18-46-44,-1.6116222,0.9984703,0.5894629,72,-0.003319033,0.04980588,-0.039298996,0
73.82122862,18.5040847,0,311.2332,18-46-44,0.54556906,0.9708252,2.548544,72,0.23003149,0.024149539,-0.10282898,0
73.82122862,18.5040847,0,311.2332,18-46-45,-0.74545306,0.5782623,-1.6669796,72,0.15184075,-0.03999131,0.048054732,0
73.82122862,18.5040847,0,311.2332,18-46-45,-1.1642369,-0.26197433,-1.33149,72,0.1139671,0.06141232,-0.05029457,0
73.82122862,18.5040847,0,311.2332,18-46-45,0.41337124,0.38979244,1.7798277,72,-0.03630576,0.027203865,0.012013681,0
73.82122862,18.5040847,0,311.2332,18-46-45,0.48215693,-0.49769497,-0.7629624,72,0.057767488,-0.019221893,0.010791954,0
73.82122862,18.5040847,0,311.2332,18-46-45,1.2901231,-1.0964403,0.18496114,71,-0.028975375,0.002158391,-0.04907284,0
73.82122862,18.5040847,0,311.2332,18-46-45,-0.63405603,0.22624779,0.24627222,72,-0.026531912,-0.03632612,0.012624547,0
73.82122862,18.5040847,0,311.2332,18-46-45,-1.6018142,0.36993027,0.4950842,71,-0.061351236,-0.07053457,0.07248934,0
73.82122862,18.5040847,0,311.2332,18-46-45,-0.76291186,1.0151415,-1.0080931,72,-0.105944395,-0.029606603,0.050498195,0
73.82122862,18.5040847,0,311.2332,18-46-45,-0.47868428,0.7099018,0.18580872,72,0.043106724,0.04858415,-0.030136019,0
73.82122862,18.5040847,0,311.2332,18-46-45,-1.0473948,0.45343208,-0.7614304,72,0.007065675,0.029647326,0.045000404,0
73.82122862,18.5040847,0,311.2332,18-46-46,-0.80206984,0.3058777,0.1428408,72,0.047993645,0.11883365,-0.12848532,0
73.82122862,18.5040847,0,311.2332,18-46-46,1.7895821,-0.75930595,-0.4713646,72,0.039441533,0.08951212,-0.082670435,0
73.82122862,18.5040847,0,311.2332,18-46-46,1.1114584,-1.0844173,0.062980175,72,-0.02958624,-0.004561127,0.033393964,0
73.82122862,18.5040847,0,311.2332,18-46-46,1.298376,0.7507229,1.3287055,72,-0.038138352,0.002769256,0.07065675,0
73.82122862,18.5040847,0,311.2332,18-46-46,0.82532096,0.45877838,0.29501343,72,0.008287406,0.013153965,0.01628974,0
73.82122862,18.5040847,0,311.2332,18-46-46,1.0558219,-0.9685087,0.21262544,72,-0.15359189,-0.011280645,0.051719926,0
73.82122862,18.5040847,0,311.2332,18-46-46,-1.2933775,-0.53192806,1.1209382,72,-0.057075176,-0.047321696,0.16900605,0
73.82122862,18.5040847,0,311.2332,18-46-46,0.033136547,-0.25606918,-0.11863285,72,-0.08700757,0.06019059,-0.0234165,0
73.82122862,18.5040847,0,311.2332,18-46-46,-2.649074,-0.54442215,1.1479385,72,-0.12427035,0.15915075,-0.11810061,0
73.82122862,18.5040847,0,311.2332,18-46-46,1.2485884,-0.20317364,-0.84717536,72,-0.1884112,0.09806424,-0.03135775,0
73.82122862,18.5040847,0,311.2332,18-46-47,-0.56090164,0.20724201,0.875292,72,-0.13587679,0.08034914,-0.03257948,0
73.82122862,18.5040847,0,311.2332,18-46-47,1.1688112,1.1743393,-1.3429625,72,-0.13893111,0.08890126,-0.039909862,0
73.82122862,18.5040847,0,311.2332,18-46-47,-0.0626207,1.5333261,-2.2092545,72,0.2825659,0.11822279,-0.12848532,0
73.82122862,18.5040847,0,311.2332,18-46-47,-1.1260068,1.7407179,0.33894902,72,0.37725002,0.07851654,-0.12176581,0
73.82122862,18.5040847,0,311.2332,18-46-47,-0.1711553,0.71986866,0.64059806,72,0.28073332,-0.010669779,0.045000404,0
73.82122862,18.5040847,0,311.2332,18-46-47,2.6966143,-0.64233303,1.1145172,72,0.102971524,0.03697771,-0.025859963,0
73.82122862,18.5040847,0,311.2332,18-46-47,2.665461,-0.5392933,-0.52756643,72,0.13534738,-0.06931284,0.098145686,0
73.82122862,18.5040847,0,311.2332,18-46-47,-0.30488604,0.88418484,-2.0961058,72,0.16344719,-0.0577064,0.007737625,0
73.82122862,18.5040847,0,311.2332,18-46-47,-0.39954877,0.1960907,0.03509909,72,0.046771914,0.09378818,-0.047240246,0
73.82122862,18.5040847,0,311.2332,18-46-47,-0.5013403,1.2002916,-2.8199928,71,0.13534738,0.05774713,-0.052738033,0
73.82122862,18.5040847,0,311.2332,18-46-48,1.4219298,0.2805786,-0.60532767,72,0.082812965,0.004601852,0.005905032,0
73.82122862,18.5040847,0,311.2332,18-46-48,1.0398273,-0.07274532,0.24441987,72,0.071206525,-0.010058914,-0.010588331,0
73.82122862,18.5040847,0,311.2332,18-46-48,-0.28424746,-1.246171,1.0518413,72,0.1438995,0.024149539,-0.10405071,0
73.82122862,18.5040847,0,311.2332,18-46-48,-0.07839054,-0.53259563,-0.25291035,72,0.19154698,0.049195014,-0.09916379,0
73.82122862,18.5040847,0,311.2332,18-46-48,0.44057548,-1.3556871,0.2053554,72,0.14267777,0.004601852,-0.046018515,0
73.82122862,18.5040847,0,311.2332,18-46-48,-0.1018772,-1.621645,1.1714135,72,-0.049744792,-0.022887085,0.06699155,0
73.82122862,18.5040847,0,311.2332,18-46-48,1.174263,-0.33168602,0.5409996,72,-0.16580918,0.07485136,0.030950509,0
73.82122862,18.5040847,0,311.2332,18-46-48,1.1121941,-1.0113544,1.6444442,72,0.015006924,0.114557594,-0.059457548,0
73.82122862,18.5040847,0,311.2332,18-46-48,0.41843617,0.44291115,1.7999924,72,-0.16519833,0.10600548,-0.113213696,0
73.82122862,18.5040847,0,311.2332,18-46-48,-1.272712,0.2750578,0.1590528,72,-0.14809409,0.112725,-0.09794206,0
73.82122862,18.5040847,0,311.2332,18-46-49,-0.8736147,0.3585205,0.07576367,72,-0.12304862,0.11639019,-0.09794206,0
73.82122862,18.5040847,0,311.2332,18-46-49,-1.7827541,-0.17206669,2.350116,72,-0.0479122,0.14204654,-0.08938995,0
73.82122862,18.5040847,0,311.2332,18-46-49,-1.1895266,-1.035778,2.4433866,72,-0.112053044,0.112725,-0.058846686,0
73.82122862,18.5040847,0,311.2332,18-46-49,0.3133169,-0.6884432,1.8378276,72,-0.077233724,0.08890126,-0.059457548,0
73.82122862,18.5040847,0,311.2332,18-46-49,0.8063515,-0.16586399,1.0785233,72,-0.049133927,-0.02105449,0.005294167,0
73.82122862,18.5040847,0,311.2332,18-46-49,-1.1547561,0.020087242,0.64441323,72,-0.07479026,-0.004561127,0.040113486,0
73.82122862,18.5040847,0,311.2332,18-46-49,0.0900608,-1.3114939,-1.5535984,72,-0.042414412,-0.08519534,0.13601932,0
73.82122862,18.5040847,0,311.2332,18-46-49,0.9397145,0.6899481,0.97391427,72,-0.049133927,-0.107797354,0.08165232,0
73.82122862,18.5040847,0,311.2332,18-46-49,-1.2706597,-0.32141495,-1.039633,72,-0.057075176,-0.061371595,0.041946083,0
73.82122862,18.5040847,0,311.2332,18-46-49,-0.2989306,0.5907612,0.20185325,72,-0.000265,0.04858415,-0.107715905,0
73.82122862,18.5040847,0,311.2332,18-46-50,1.2931772,0.6124735,0.5764134,71,-0.02958624,0.102951154,-0.15291993,0
73.82122862,18.5040847,0,311.2332,18-46-50,0.59749156,0.25815582,-0.07717268,72,-0.093116224,0.052249342,-0.09000081,0
